thisRow.t,notes,trial_num,participant,session,phase,cue_color,target_difficulty,trial_index_within_staircase,prop_used,stimulus_logit,staircase_id,accuracy,is_timeout,rt_choice,early_response,true_shape,resp_shape,quest_alpha_mean,quest_alpha_sd,quest_beta_mean,quest_beta_sd,quest_lambda_mean,quest_lambda_sd,angle_bias,applied_angle_bias,trials_completed_this_staircase,alpha_sd_current,mean_evidence,sum_evidence,var_evidence,rt_frame,num_frames_preRT,mean_evidence_preRT,sum_evidence_preRT,var_evidence_preRT,cum_evidence_preRT,max_cum_evidence_preRT,min_cum_evidence_preRT,max_abs_cum_evidence_preRT,prop_positive_evidence_preRT,difficulty_type,trial_index_within_type,threshold_source,s_threshold_60pct,s_threshold_80pct,cue_difficulty_prediction,actual_difficulty_level,target_percentage,confidence_rating,agency_rating,s_threshold_70pct,participant,session,learning_order,counterbalance_index,
,,1,1996s,001,calibration_interleaved,black,unknown,1,0.347354013008391,-0.6306903787402434,0,0,False,3.4196154999081045,True,square,dot,0.08546844611530306,0.7868489501376656,3.2884933912590077,2.0699589733917225,0.0266646667842519,0.021664116488440077,0,0,1,0.7868489501376656,4.62921649972715,958.24781544352,249.22278349736945,207,207,4.62921649972715,958.24781544352,249.22278349736945,958.24781544352,1003.2110948498479,-1.2126834179852655,1003.2110948498479,0.5024154589371981,,,,,,,,,,,,1996s,001,"[90, 0]",3,
,,2,1996s,001,calibration_interleaved,black,unknown,1,0.347354013008391,-0.6306903787402434,90,1,False,3.0378735000267625,True,dot,dot,-0.6105307855798056,0.9585022178944526,3.2449087058269095,2.055422663760532,0.0257181206205907,0.02148187862845949,90,-90,1,0.9585022178944526,5.121649298216361,942.3834708718103,136.04554950171595,184,184,5.121649298216361,942.3834708718103,136.04554950171595,942.3834708718103,1008.0071713364324,11.884017546178152,1008.0071713364324,0.483695652173913,,,,,,,,,,,,1996s,001,"[90, 0]",3,
,,3,1996s,001,calibration_interleaved,black,unknown,2,0.5350820483873121,0.14055915473515587,0,0,False,1.8882669999729842,True,square,dot,0.524820450452436,0.6692602983639965,3.2637768867652444,2.0581988369923665,0.027642037913681694,0.021816470896102922,0,0,2,0.6692602983639965,14.185375588593825,1631.3181926882899,179.3801251263413,115,115,14.185375588593825,1631.3181926882899,179.3801251263413,1631.3181926882899,1631.3181926882896,12.931153743388514,1631.3181926882896,0.8,,,,,,,,,,,,1996s,001,"[90, 0]",3,
,,4,1996s,001,calibration_interleaved,black,unknown,2,0.347354013008391,-0.6306903787402434,90,1,False,4.539725499926135,True,square,square,-0.8088180781535858,0.9261401199953351,3.249478062754128,2.0577708660113303,0.025403727978280513,0.021413000928689013,90,-90,2,0.9261401199953351,2.4696295850139083,679.1481358788247,407.17154627813557,275,275,2.4696295850139083,679.1481358788247,407.17154627813557,679.1481358788247,679.1481358788244,-460.4194682106612,679.1481358788244,0.5163636363636364,,,,,,,,,,,,1996s,001,"[90, 0]",3,
,,5,1996s,001,calibration_interleaved,black,unknown,3,0.6580745541515514,0.654725510385422,0,1,False,0.9362655999138951,True,dot,dot,0.41030951672919036,0.6534884499054904,3.28025404256981,2.0655481629479597,0.027294976404465387,0.021762991574740532,0,0,3,0.6534884499054904,14.690183236615027,852.0306277236716,203.60948225373977,58,58,14.690183236615027,852.0306277236716,203.60948225373977,852.0306277236716,855.3061873310044,37.407613478370024,855.3061873310044,0.7758620689655172,,,,,,,,,,,,1996s,001,"[90, 0]",3,
,,6,1996s,001,calibration_interleaved,black,unknown,3,0.40766968306220214,-0.37360720091511007,90,1,False,3.5879890001378953,True,dot,dot,-0.9700635822792076,0.8644614427153365,3.279681644503007,2.0687435841488386,0.025032186531235075,0.021327013668469365,90,-90,3,0.8644614427153365,3.453603482504097,749.431955703389,233.06242133270135,217,217,3.453603482504097,749.431955703389,233.06242133270135,749.431955703389,749.4319557033888,-188.7082791848005,749.4319557033888,0.34101382488479265,,,,,,,,,,,,1996s,001,"[90, 0]",3,
,,7,1996s,001,calibration_interleaved,black,unknown,4,0.5981210736084265,0.3976423325602886,0,nan,True,nan,False,dot,timeout,0.41030951672919036,0.6534884499054904,3.28025404256981,2.0655481629479597,0.027294976404465387,0.021762991574740532,0,0,4,0.6534884499054904,9.068776526155554,2729.701734372822,194.53744582620126,nan,nan,nan,nan,nan,nan,nan,nan,nan,nan,,,,,,,,,,,,1996s,001,"[90, 0]",3,
,,8,1996s,001,calibration_interleaved,black,unknown,4,0.347354013008391,-0.6306903787402434,90,1,False,2.621080699842423,True,dot,dot,-1.1190240970074623,0.8074724288348268,3.311627193935783,2.081136767193931,0.024670840428403354,0.021238771821626617,90,90,4,0.8074724288348268,4.083997043288128,649.3555298828123,180.31772298057544,159,159,4.083997043288128,649.3555298828123,180.31772298057544,649.3555298828123,692.64472876287,-3.6537859850699412,692.64472876287,0.559748427672956,,,,,,,,,,,,1996s,001,"[90, 0]",3,
,,9,1996s,001,calibration_interleaved,black,unknown,5,0.5981210736084265,0.3976423325602886,0,1,False,1.2049605001229793,True,square,square,0.2955818315685373,0.6430213099496522,3.2816197706160994,2.066748106991778,0.02697472973651053,0.02171008277512787,0,0,5,0.6430213099496522,13.781978525117928,1019.8664108587267,204.4687166742795,74,74,13.781978525117928,1019.8664108587267,204.4687166742795,1019.8664108587267,1019.8664108587267,1.9551346003463288,1019.8664108587267,0.7027027027027027,,,,,,,,,,,,1996s,001,"[90, 0]",3,
,,10,1996s,001,calibration_interleaved,black,unknown,5,0.347354013008391,-0.6306903787402434,90,1,False,2.555537400068715,True,dot,dot,-1.241575383088058,0.7495926648821191,3.354074156241943,2.096974867907407,0.024293246696899848,0.021141592718768264,90,-90,5,0.7495926648821191,6.593896007491008,1022.0538811611062,231.7538581064348,155,155,6.593896007491008,1022.0538811611062,231.7538581064348,1022.0538811611062,1075.1529632975257,16.07565997847747,1075.1529632975257,0.5419354838709678,,,,,,,,,,,,1996s,001,"[90, 0]",3,
,,11,1996s,001,calibration_interleaved,black,unknown,6,0.5981210736084265,0.3976423325602886,0,1,False,3.1043875999748707,True,dot,dot,nan,0.6257293579968964,nan,nan,nan,nan,0,0,6,0.6257293579968964,14.308071006790106,2689.91734927654,197.7708359026719,188,188,14.308071006790106,2689.91734927654,197.7708359026719,2689.91734927654,2690.688959250882,38.7135169782339,2690.688959250882,0.8404255319148937,,,,,,,,,,,,1996s,001,"[90, 0]",3,
,,12,1996s,001,calibration_interleaved,black,unknown,6,0.29156950079727495,-0.887773556565376,90,1,False,3.155318200122565,True,square,square,nan,0.7023309908200142,nan,nan,nan,nan,90,-90,6,0.7023309908200142,3.853461559535885,736.011157871354,318.7747622554327,191,191,3.853461559535885,736.011157871354,318.7747622554327,736.011157871354,761.9792785905737,-62.7031965733476,761.9792785905737,0.4607329842931937,,,,,,,,,,,,1996s,001,"[90, 0]",3,
,,13,1996s,001,calibration_interleaved,black,unknown,7,0.5981210736084265,0.3976423325602886,0,1,False,3.1218095999211073,True,square,square,nan,0.6044292792256621,nan,nan,nan,nan,0,0,7,0.6044292792256621,13.145606103547877,2484.519553570549,200.1876232710606,189,189,13.145606103547877,2484.519553570549,200.1876232710606,2484.519553570549,2484.9846592347826,2.7793821339898717,2484.9846592347826,0.671957671957672,,,,,,,,,,,,1996s,001,"[90, 0]",3,
,,14,1996s,001,calibration_interleaved,black,unknown,7,0.2414297750189407,-1.1448567343905092,90,0,False,2.2886558999307454,True,square,dot,nan,0.6712303973201291,nan,nan,nan,nan,90,-90,7,0.6712303973201291,1.496249187970447,207.9786371278921,195.51602633518715,139,139,1.496249187970447,207.9786371278921,195.51602633518715,207.9786371278921,207.97863712789217,-99.00333742824937,207.97863712789217,0.5107913669064749,,,,,,,,,,,,1996s,001,"[90, 0]",3,
,,15,1996s,001,calibration_interleaved,black,unknown,8,0.5350820483873121,0.14055915473515587,0,1,False,3.7397986999712884,True,dot,dot,nan,0.5926256988314804,nan,nan,nan,nan,0,0,8,0.5926256988314804,8.587988562417245,1949.4734036687146,119.64874829726739,227,227,8.587988562417245,1949.4734036687146,119.64874829726739,1949.4734036687146,1985.7414242654424,8.111108941942282,1985.7414242654424,0.6211453744493393,,,,,,,,,,,,1996s,001,"[90, 0]",3,
,,16,1996s,001,calibration_interleaved,black,unknown,8,0.40766968306220214,-0.37360720091511007,90,1,False,3.0550486999563873,True,dot,dot,nan,0.619499703826113,nan,nan,nan,nan,90,-90,8,0.619499703826113,5.116540211442763,946.5599391169112,160.41358303119472,185,185,5.116540211442763,946.5599391169112,160.41358303119472,946.5599391169112,1042.273891536698,-1.1764631975173878,1042.273891536698,0.6108108108108108,,,,,,,,,,,,1996s,001,"[90, 0]",3,
,,17,1996s,001,calibration_interleaved,black,unknown,9,0.5350820483873121,0.14055915473515587,0,1,False,1.3556278999894857,True,dot,dot,nan,0.5777805117539624,nan,nan,nan,nan,0,0,9,0.5777805117539624,11.730467761029956,973.6288241654863,107.17853402749978,83,83,11.730467761029956,973.6288241654863,107.17853402749978,973.6288241654863,973.6288241654865,-28.78899328971091,973.6288241654865,0.8192771084337349,,,,,,,,,,,,1996s,001,"[90, 0]",3,
,,18,1996s,001,calibration_interleaved,black,unknown,9,0.347354013008391,-0.6306903787402434,90,1,False,3.3876318999100477,True,square,square,nan,0.5808074581136354,nan,nan,nan,nan,90,90,9,0.5808074581136354,4.056464466515033,831.5752156355818,338.2419548340066,205,205,4.056464466515033,831.5752156355818,338.2419548340066,831.5752156355818,1119.399078268836,-276.4790085657536,1119.399078268836,0.5804878048780487,,,,,,,,,,,,1996s,001,"[90, 0]",3,
,,19,1996s,001,calibration_interleaved,black,unknown,10,0.47090191089840744,-0.11652402308997703,0,1,False,2.7543103999923915,True,square,square,nan,0.573725266763189,nan,nan,nan,nan,0,0,10,0.573725266763189,11.523061100052551,1924.351203708776,324.66595105783847,167,167,11.523061100052551,1924.351203708776,324.66595105783847,1924.351203708776,1924.5790668546879,-32.09061918258538,1924.5790668546879,0.6526946107784432,,,,,,,,,,,,1996s,001,"[90, 0]",3,
,,20,1996s,001,calibration_interleaved,black,unknown,10,0.29156950079727495,-0.887773556565376,90,0,False,3.6541073999833316,True,dot,square,-0.7899302699442117,0.5665858924957956,3.2709965360255535,2.0526945755221107,0.025696003792107062,0.02144654372568954,90,-90,10,0.5665858924957956,3.704529787576557,818.7010830544191,350.7297984260132,221,221,3.704529787576557,818.7010830544191,350.7297984260132,818.7010830544191,819.1551946398267,-296.29670476222344,819.1551946398267,0.5429864253393665,,,,,,,,,,,,1996s,001,"[90, 0]",3,
,,21,1996s,001,calibration_interleaved,black,unknown,11,0.47090191089840744,-0.11652402308997703,0,1,False,3.805564600042999,True,dot,dot,nan,0.566328643917705,nan,nan,nan,nan,0,0,11,0.566328643917705,8.792214247381665,2022.2092768977827,268.9870913395392,230,230,8.792214247381665,2022.2092768977827,268.9870913395392,2022.2092768977827,2138.276408778307,23.921106160649973,2138.276408778307,0.6173913043478261,,,,,,,,,,,,1996s,001,"[90, 0]",3,
,,22,1996s,001,calibration_interleaved,black,unknown,11,0.47090191089840744,-0.11652402308997703,90,1,False,2.7389411001931876,True,square,square,nan,0.5203071300267014,nan,nan,nan,nan,90,-90,11,0.5203071300267014,7.453415088800187,1237.266904740831,342.0854995844946,166,166,7.453415088800187,1237.266904740831,342.0854995844946,1237.266904740831,1316.827426143904,-14.831410401021355,1316.827426143904,0.5783132530120482,,,,,,,,,,,,1996s,001,"[90, 0]",3,
,,23,1996s,001,calibration_interleaved,black,unknown,12,0.40766968306220214,-0.37360720091511007,0,1,False,2.93881110008806,True,dot,dot,nan,0.5698509465571707,nan,nan,nan,nan,0,0,12,0.5698509465571707,7.053470425053237,1262.5712060845294,148.41766757530704,179,179,7.053470425053237,1262.5712060845294,148.41766757530704,1262.5712060845294,1263.7300518175011,-50.11818681373495,1263.7300518175011,0.6145251396648045,,,,,,,,,,,,1996s,001,"[90, 0]",3,
,,24,1996s,001,calibration_interleaved,black,unknown,12,0.40766968306220214,-0.37360720091511007,90,1,False,3.137955999933183,True,dot,dot,nan,0.48478777160374065,nan,nan,nan,nan,90,-90,12,0.48478777160374065,1.6145067532365047,306.7562831149359,212.37141025153375,190,190,1.6145067532365047,306.7562831149359,212.37141025153375,306.7562831149359,378.1207850345529,-223.1863291076789,378.1207850345529,0.3526315789473684,,,,,,,,,,,,1996s,001,"[90, 0]",3,
,,25,1996s,001,calibration_interleaved,black,unknown,13,0.40766968306220214,-0.37360720091511007,0,1,False,3.153777200030163,True,dot,dot,nan,0.569330869274701,nan,nan,nan,nan,0,0,13,0.569330869274701,5.325023399485329,1017.0794693016978,237.94130337595558,191,191,5.325023399485329,1017.0794693016978,237.94130337595558,1017.0794693016978,1116.3745948135384,-39.001620017271776,1116.3745948135384,0.5287958115183246,,,,,,,,,,,,1996s,001,"[90, 0]",3,
,,26,1996s,001,calibration_interleaved,black,unknown,13,0.347354013008391,-0.6306903787402434,90,1,False,3.5051415998023003,True,square,square,nan,0.4610229068468339,nan,nan,nan,nan,90,-90,13,0.4610229068468339,4.640847235417351,983.8596139084784,273.356583842222,212,212,4.640847235417351,983.8596139084784,273.356583842222,983.8596139084784,983.8596139084789,-185.88451112255075,983.8596139084789,0.5377358490566038,,,,,,,,,,,,1996s,001,"[90, 0]",3,
,,27,1996s,001,calibration_interleaved,black,unknown,14,0.347354013008391,-0.6306903787402434,0,1,False,3.271425100043416,True,square,square,nan,0.5792055175834918,nan,nan,nan,nan,0,0,14,0.5792055175834918,5.068827621852161,1003.6278691267278,360.72357795106495,198,198,5.068827621852161,1003.6278691267278,360.72357795106495,1003.6278691267278,1234.5135154845761,-3.0169553984529656,1234.5135154845761,0.5909090909090909,,,,,,,,,,,,1996s,001,"[90, 0]",3,
,,28,1996s,001,calibration_interleaved,black,unknown,14,0.29156950079727495,-0.887773556565376,90,0,False,4.5379017000086606,True,dot,square,nan,0.43771108807636433,nan,nan,nan,nan,90,-90,14,0.43771108807636433,3.1054587823034674,850.89570635115,323.6912104813928,274,274,3.1054587823034674,850.89570635115,323.6912104813928,850.89570635115,1056.8819106243768,-47.235517325983444,1056.8819106243768,0.5401459854014599,,,,,,,,,,,,1996s,001,"[90, 0]",3,
,,29,1996s,001,calibration_interleaved,black,unknown,15,0.347354013008391,-0.6306903787402434,0,1,False,1.4027776999864727,True,dot,dot,nan,0.5841085329841216,nan,nan,nan,nan,0,0,15,0.5841085329841216,3.085824515814073,265.38090836001027,311.86504793878044,86,86,3.085824515814073,265.38090836001027,311.86504793878044,265.38090836001027,307.01485648613584,-195.8453692766796,307.01485648613584,0.6046511627906976,,,,,,,,,,,,1996s,001,"[90, 0]",3,
,,30,1996s,001,calibration_interleaved,black,unknown,15,0.40766968306220214,-0.37360720091511007,90,1,False,2.5660090998280793,True,dot,dot,-0.810668278347412,0.40579150342047854,3.481654645530447,2.137148299814084,0.025138060381903457,0.021310744106951038,90,-90,15,0.40579150342047854,4.370304646242505,681.7675248138307,88.01355022444368,156,156,4.370304646242505,681.7675248138307,88.01355022444368,681.7675248138307,681.851778946668,10.890990397015635,681.851778946668,0.6089743589743589,,,,,,,,,,,,1996s,001,"[90, 0]",3,
,,31,1996s,001,calibration_interleaved,black,unknown,16,0.29156950079727495,-0.887773556565376,0,1,False,2.7047023999039084,True,dot,dot,nan,0.5979695568767397,nan,nan,nan,nan,0,0,16,0.5979695568767397,2.363756563669492,387.6560764417967,232.93800485920576,164,164,2.363756563669492,387.6560764417967,232.93800485920576,387.6560764417967,417.89412872159056,-172.48950671559172,417.89412872159056,0.4146341463414634,,,,,,,,,,,,1996s,001,"[90, 0]",3,
,,32,1996s,001,calibration_interleaved,black,unknown,16,0.40766968306220214,-0.37360720091511007,90,0,False,2.438635899918154,True,dot,square,nan,0.47200566444904374,nan,nan,nan,nan,90,90,16,0.47200566444904374,6.540434034630185,967.9842371252674,283.3839474252708,148,148,6.540434034630185,967.9842371252674,283.3839474252708,967.9842371252674,967.9842371252679,17.874215039909423,967.9842371252679,0.5878378378378378,,,,,,,,,,,,1996s,001,"[90, 0]",3,
,,33,1996s,001,calibration_interleaved,black,unknown,17,0.29156950079727495,-0.887773556565376,0,0,False,1.6712557999417186,True,dot,square,nan,0.4976249119209553,nan,nan,nan,nan,0,0,17,0.4976249119209553,3.822134627659691,389.8577320212885,369.4962366042749,102,102,3.822134627659691,389.8577320212885,369.4962366042749,389.8577320212885,498.6992561517179,26.682592036615347,498.6992561517179,0.45098039215686275,,,,,,,,,,,,1996s,001,"[90, 0]",3,
,,34,1996s,001,calibration_interleaved,black,unknown,17,0.47090191089840744,-0.11652402308997703,90,1,False,1.7869525998830795,True,square,square,nan,0.43198154067401495,nan,nan,nan,nan,90,-90,17,0.43198154067401495,8.45255789310029,921.3288103479315,199.4211117945934,109,109,8.45255789310029,921.3288103479315,199.4211117945934,921.3288103479315,921.3288103479313,30.458543339184203,921.3288103479313,0.6146788990825688,,,,,,,,,,,,1996s,001,"[90, 0]",3,
,,35,1996s,001,calibration_interleaved,black,unknown,18,0.40766968306220214,-0.37360720091511007,0,1,False,3.5042351000010967,True,dot,dot,nan,0.48474636469110566,nan,nan,nan,nan,0,0,18,0.48474636469110566,4.554365750811019,965.5255391719361,354.82229580781103,212,212,4.554365750811019,965.5255391719361,354.82229580781103,965.5255391719361,985.3168494474323,-2.7623430470721666,985.3168494474323,0.49528301886792453,,,,,,,,,,,,1996s,001,"[90, 0]",3,
,,36,1996s,001,calibration_interleaved,black,unknown,18,0.47090191089840744,-0.11652402308997703,90,1,False,1.5207235999405384,True,square,square,nan,0.3992819475681805,nan,nan,nan,nan,90,-90,18,0.3992819475681805,6.885331958397743,640.3358721309901,343.436176383685,93,93,6.885331958397743,640.3358721309901,343.436176383685,640.3358721309901,771.8178318930941,4.821239782816765,771.8178318930941,0.4731182795698925,,,,,,,,,,,,1996s,001,"[90, 0]",3,
,,37,1996s,001,calibration_interleaved,black,unknown,19,0.40766968306220214,-0.37360720091511007,0,1,False,3.257260600104928,True,square,square,nan,0.4713460398253412,nan,nan,nan,nan,0,0,19,0.4713460398253412,3.9333792112745067,774.8757046210778,315.19843449834707,197,197,3.9333792112745067,774.8757046210778,315.19843449834707,774.8757046210778,900.3655809369741,-75.8579272752726,900.3655809369741,0.5076142131979695,,,,,,,,,,,,1996s,001,"[90, 0]",3,
,,38,1996s,001,calibration_interleaved,black,unknown,19,0.40766968306220214,-0.37360720091511007,90,1,False,2.8200129000470042,True,dot,dot,nan,0.3744714731215885,nan,nan,nan,nan,90,-90,19,0.3744714731215885,7.279007975968676,1244.7103638906435,318.6332669623001,171,171,7.279007975968676,1244.7103638906435,318.6332669623001,1244.7103638906435,1244.7103638906426,23.746421465089128,1244.7103638906426,0.6081871345029239,,,,,,,,,,,,1996s,001,"[90, 0]",3,
,,39,1996s,001,calibration_interleaved,black,unknown,20,0.347354013008391,-0.6306903787402434,0,0,False,2.671876500127837,True,dot,square,nan,0.42376487434057764,nan,nan,nan,nan,0,0,20,0.42376487434057764,1.980404626047024,320.8255494196179,436.8974623984547,162,162,1.980404626047024,320.8255494196179,436.8974623984547,320.8255494196179,677.6950884025216,29.13996050256335,677.6950884025216,0.5061728395061729,,,,,,,,,,,,1996s,001,"[90, 0]",3,
,,40,1996s,001,calibration_interleaved,black,unknown,20,0.40766968306220214,-0.37360720091511007,90,1,False,3.854716300033033,True,square,square,-0.7594597324821677,0.3541363292717565,3.281294606518335,2.0027124125498887,0.025829422500738136,0.021421388242890232,90,90,20,0.3541363292717565,4.719329032370602,1099.6036645423503,193.55509264827438,233,233,4.719329032370602,1099.6036645423503,193.55509264827438,1099.6036645423503,1099.6036645423505,-19.1514215043535,1099.6036645423505,0.4334763948497854,,,,,,,,,,,,1996s,001,"[90, 0]",3,
,,41,1996s,001,calibration_interleaved,black,unknown,21,0.47090191089840744,-0.11652402308997703,0,0,False,3.571987499948591,True,dot,square,nan,0.4395957911630838,nan,nan,nan,nan,0,0,21,0.4395957911630838,7.552193633681914,1631.2738248752935,72.51867790293893,216,216,7.552193633681914,1631.2738248752935,72.51867790293893,1631.2738248752935,1727.6513923050154,16.28337469644222,1727.6513923050154,0.7407407407407407,,,,,,,,,,,,1996s,001,"[90, 0]",3,
,,42,1996s,001,calibration_interleaved,black,unknown,21,0.347354013008391,-0.6306903787402434,90,1,False,1.5878291998524219,True,dot,dot,nan,0.34173795001201385,nan,nan,nan,nan,90,-90,21,0.34173795001201385,4.580720070328402,444.32984682185497,283.5428253943572,97,97,4.580720070328402,444.32984682185497,283.5428253943572,444.32984682185497,444.3298468218549,-144.52345389630932,444.3298468218549,0.5567010309278351,,,,,,,,,,,,1996s,001,"[90, 0]",3,
,,43,1996s,001,calibration_interleaved,black,unknown,22,0.5350820483873121,0.14055915473515587,0,1,False,2.8380613999906927,True,square,square,nan,0.41725806966503876,nan,nan,nan,nan,0,0,22,0.41725806966503876,13.751821126669896,2365.313233787222,126.47171160573548,172,172,13.751821126669896,2365.313233787222,126.47171160573548,2365.313233787222,2365.313233787223,16.12646784638313,2365.313233787223,0.8953488372093024,,,,,,,,,,,,1996s,001,"[90, 0]",3,
,,44,1996s,001,calibration_interleaved,black,unknown,22,0.347354013008391,-0.6306903787402434,90,0,False,4.036530399927869,True,square,dot,nan,0.3447716525170828,nan,nan,nan,nan,90,90,22,0.3447716525170828,4.461690562062374,1088.6524971432193,237.98160292764143,244,244,4.461690562062374,1088.6524971432193,237.98160292764143,1088.6524971432193,1260.3969011888457,-153.686613756744,1260.3969011888457,0.4713114754098361,,,,,,,,,,,,1996s,001,"[90, 0]",3,
,,45,1996s,001,calibration_interleaved,black,unknown,23,0.5350820483873121,0.14055915473515587,0,1,False,1.504081399878487,True,square,square,nan,0.3975762967489541,nan,nan,nan,nan,0,0,23,0.3975762967489541,11.527749453586852,1060.5529497299904,314.10146492862356,92,92,11.527749453586852,1060.5529497299904,314.10146492862356,1060.5529497299904,1060.5529497299906,19.479964612650893,1060.5529497299906,0.6304347826086957,,,,,,,,,,,,1996s,001,"[90, 0]",3,
,,46,1996s,001,calibration_interleaved,black,unknown,23,0.40766968306220214,-0.37360720091511007,90,1,False,1.770593099994585,True,square,square,nan,0.3256455033126193,nan,nan,nan,nan,90,-90,23,0.3256455033126193,5.155422182696576,561.9410179139268,274.2040833279567,109,109,5.155422182696576,561.9410179139268,274.2040833279567,561.9410179139268,561.9410179139269,-116.72063347756982,561.9410179139269,0.5871559633027523,,,,,,,,,,,,1996s,001,"[90, 0]",3,
,,47,1996s,001,calibration_interleaved,black,unknown,24,0.47090191089840744,-0.11652402308997703,0,1,False,2.054725400172174,True,dot,dot,nan,0.38291942621433356,nan,nan,nan,nan,0,0,24,0.38291942621433356,5.567115737078954,695.8894671348692,327.10444026671047,125,125,5.567115737078954,695.8894671348692,327.10444026671047,695.8894671348692,803.8939999047691,-60.81544050497821,803.8939999047691,0.568,,,,,,,,,,,,1996s,001,"[90, 0]",3,
,,48,1996s,001,calibration_interleaved,black,unknown,24,0.40766968306220214,-0.37360720091511007,90,nan,True,nan,False,dot,timeout,nan,0.3256455033126193,nan,nan,nan,nan,90,-90,24,0.3256455033126193,7.531114309886475,2266.865407275829,390.84036041105776,nan,nan,nan,nan,nan,nan,nan,nan,nan,nan,,,,,,,,,,,,1996s,001,"[90, 0]",3,
,,49,1996s,001,calibration_interleaved,black,unknown,25,0.47090191089840744,-0.11652402308997703,0,0,False,1.6548264999873936,True,dot,square,nan,0.3872649017334183,nan,nan,nan,nan,0,0,25,0.3872649017334183,8.241401127633814,832.3815138910152,233.08255693232115,101,101,8.241401127633814,832.3815138910152,233.08255693232115,832.3815138910152,832.381513891015,1.9028655568778141,832.381513891015,0.5742574257425742,,,,,,,,,,,,1996s,001,"[90, 0]",3,
,,50,1996s,001,calibration_interleaved,black,unknown,25,0.40766968306220214,-0.37360720091511007,90,1,False,3.022187299793586,True,dot,dot,-0.7253295367499373,0.31005973866544545,3.284020551846744,1.9918621338752664,0.026011123781689745,0.02144379250348976,90,90,25,0.31005973866544545,5.521634574934006,1010.459127212923,318.0063720914725,183,183,5.521634574934006,1010.459127212923,318.0063720914725,1010.459127212923,1067.3809883350605,17.722638828943587,1067.3809883350605,0.4972677595628415,,,,,,,,,,,,1996s,001,"[90, 0]",3,
,,51,1996s,001,calibration_interleaved,black,unknown,26,0.5350820483873121,0.14055915473515587,0,1,False,2.4206762998364866,True,square,square,nan,0.37050959976463316,nan,nan,nan,nan,0,0,26,0.37050959976463316,11.343620888597005,1667.5122706237598,216.73376328197588,147,147,11.343620888597005,1667.5122706237598,216.73376328197588,1667.5122706237598,1667.9804237700469,36.24822117629557,1667.9804237700469,0.7006802721088435,,,,,,,,,,,,1996s,001,"[90, 0]",3,
,,52,1996s,001,calibration_interleaved,black,unknown,26,0.347354013008391,-0.6306903787402434,90,0,False,3.789518899982795,True,dot,square,nan,0.31425900252746153,nan,nan,nan,nan,90,90,26,0.31425900252746153,6.322151933933833,1447.7727928708478,178.07914205170366,229,229,6.322151933933833,1447.7727928708478,178.07914205170366,1447.7727928708478,1454.1745134422645,-24.36178751128933,1454.1745134422645,0.6069868995633187,,,,,,,,,,,,1996s,001,"[90, 0]",3,
,,53,1996s,001,calibration_interleaved,black,unknown,27,0.5350820483873121,0.14055915473515587,0,0,False,2.4047538000158966,True,dot,square,nan,0.3914352333634479,nan,nan,nan,nan,0,0,27,0.3914352333634479,8.777590661343877,1281.5282365562061,146.64894423791688,146,146,8.777590661343877,1281.5282365562061,146.64894423791688,1281.5282365562061,1281.5282365562061,29.27290189321958,1281.5282365562061,0.5273972602739726,,,,,,,,,,,,1996s,001,"[90, 0]",3,
,,54,1996s,001,calibration_interleaved,black,unknown,27,0.40766968306220214,-0.37360720091511007,90,1,False,2.738633600063622,True,square,square,nan,0.2972907846540558,nan,nan,nan,nan,90,90,27,0.2972907846540558,5.283488949708467,877.0591656516054,393.7765633737697,166,166,5.283488949708467,877.0591656516054,393.7765633737697,877.0591656516054,922.3561871182461,3.32679994392483,922.3561871182461,0.5180722891566265,,,,,,,,,,,,1996s,001,"[90, 0]",3,
,,55,1996s,001,calibration_interleaved,black,unknown,28,0.5350820483873121,0.14055915473515587,0,1,False,2.8069792999885976,True,square,square,nan,0.3754145830326385,nan,nan,nan,nan,0,0,28,0.3754145830326385,13.098257313428974,2226.7037432829256,227.6312279950062,170,170,13.098257313428974,2226.7037432829256,227.6312279950062,2226.7037432829256,2294.919533609014,24.14867538028504,2294.919533609014,0.7352941176470589,,,,,,,,,,,,1996s,001,"[90, 0]",3,
,,56,1996s,001,calibration_interleaved,black,unknown,28,0.40766968306220214,-0.37360720091511007,90,0,False,4.53816739981994,True,dot,square,nan,0.327791477499512,nan,nan,nan,nan,90,90,28,0.327791477499512,5.651263334948788,1548.4461537759678,302.8223495052771,274,274,5.651263334948788,1548.4461537759678,302.8223495052771,1548.4461537759678,1548.4461537759678,-341.0323948614101,1548.4461537759678,0.5401459854014599,,,,,,,,,,,,1996s,001,"[90, 0]",3,
,,57,1996s,001,calibration_interleaved,black,unknown,29,0.5350820483873121,0.14055915473515587,0,1,False,1.7709635999053717,True,square,square,nan,0.3609065519243807,nan,nan,nan,nan,0,0,29,0.3609065519243807,11.581413541751848,1250.7926625091995,160.44578332238223,108,108,11.581413541751848,1250.7926625091995,160.44578332238223,1250.7926625091995,1250.7926625091998,-3.9656411287497306,1250.7926625091998,0.7037037037037037,,,,,,,,,,,,1996s,001,"[90, 0]",3,
,,58,1996s,001,calibration_interleaved,black,unknown,29,0.47090191089840744,-0.11652402308997703,90,1,False,2.3032720999326557,True,dot,dot,nan,0.30646811882277825,nan,nan,nan,nan,90,90,29,0.30646811882277825,8.37767968841544,1172.8751563781616,226.02729251369635,140,140,8.37767968841544,1172.8751563781616,226.02729251369635,1172.8751563781616,1172.8751563781611,7.458582065428107,1172.8751563781611,0.6857142857142857,,,,,,,,,,,,1996s,001,"[90, 0]",3,
,,59,1996s,001,calibration_interleaved,black,unknown,30,0.5350820483873121,0.14055915473515587,0,1,False,1.5388255000580102,True,square,square,nan,0.34794370523777457,nan,nan,nan,nan,0,0,30,0.34794370523777457,11.900313264898232,1118.6294469004338,208.93044479554814,94,94,11.900313264898232,1118.6294469004338,208.93044479554814,1118.6294469004338,1118.6294469004342,26.105416457098897,1118.6294469004342,0.7127659574468085,,,,,,,,,,,,1996s,001,"[90, 0]",3,
,,60,1996s,001,calibration_interleaved,black,unknown,30,0.47090191089840744,-0.11652402308997703,90,1,False,3.4699655000586063,True,square,square,-0.5774802271492423,0.2893022711837187,3.0816641759196646,1.836852048704825,0.02761551040624904,0.021692593757282535,90,90,30,0.2893022711837187,8.543714679533375,1794.1800827020088,234.97401255479144,210,210,8.543714679533375,1794.1800827020088,234.97401255479144,1794.1800827020088,1794.1800827020095,19.113734879946318,1794.1800827020095,0.5476190476190477,,,,,,,,,,,,1996s,001,"[90, 0]",3,
,,61,1996s,001,calibration_interleaved,black,unknown,31,0.5350820483873121,0.14055915473515587,0,1,False,2.4371921001002192,True,dot,dot,nan,0.3364762169202892,nan,nan,nan,nan,0,0,31,0.3364762169202892,12.268411944744381,1815.7249678221683,243.09887712003473,148,148,12.268411944744381,1815.7249678221683,243.09887712003473,1815.7249678221683,1815.7249678221683,4.603841993245544,1815.7249678221683,0.6283783783783784,,,,,,,,,,,,1996s,001,"[90, 0]",3,
,,62,1996s,001,calibration_interleaved,black,unknown,31,0.40766968306220214,-0.37360720091511007,90,1,False,3.2719433000311255,True,square,square,nan,0.27652099816220765,nan,nan,nan,nan,90,-90,31,0.27652099816220765,6.33572139783586,1254.4728367715002,402.9878663935563,198,198,6.33572139783586,1254.4728367715002,402.9878663935563,1254.4728367715002,1441.8242775876486,19.445744627509335,1441.8242775876486,0.5353535353535354,,,,,,,,,,,,1996s,001,"[90, 0]",3,
,,63,1996s,001,calibration_interleaved,black,unknown,32,0.47090191089840744,-0.11652402308997703,0,1,False,3.438180700177327,True,dot,dot,nan,0.3293223780076279,nan,nan,nan,nan,0,0,32,0.3293223780076279,7.9034187972066245,1643.9111098189778,308.782105813348,208,208,7.9034187972066245,1643.9111098189778,308.782105813348,1643.9111098189778,1731.6591675230084,-42.18391376661855,1731.6591675230084,0.5865384615384616,,,,,,,,,,,,1996s,001,"[90, 0]",3,
,,64,1996s,001,calibration_interleaved,black,unknown,32,0.40766968306220214,-0.37360720091511007,90,1,False,2.1043513999320567,True,square,square,nan,0.26578079362547635,nan,nan,nan,nan,90,90,32,0.26578079362547635,5.659568959484163,724.4248268139729,440.6824188774174,128,128,5.659568959484163,724.4248268139729,440.6824188774174,724.4248268139729,724.4248268139727,31.94564806749145,724.4248268139727,0.5546875,,,,,,,,,,,,1996s,001,"[90, 0]",3,
,,65,1996s,001,calibration_interleaved,black,unknown,33,0.47090191089840744,-0.11652402308997703,0,1,False,1.438738299999386,True,square,square,nan,0.3223445613073497,nan,nan,nan,nan,0,0,33,0.3223445613073497,7.5162715573232735,661.4318970444481,238.01039833927118,88,88,7.5162715573232735,661.4318970444481,238.01039833927118,661.4318970444481,747.1866010233266,-115.72247862821611,747.1866010233266,0.5795454545454546,,,,,,,,,,,,1996s,001,"[90, 0]",3,
,,66,1996s,001,calibration_interleaved,black,unknown,33,0.40766968306220214,-0.37360720091511007,90,1,False,4.722036699997261,True,square,square,nan,0.25680780089325567,nan,nan,nan,nan,90,-90,33,0.25680780089325567,6.079809286418179,1732.745646629181,237.9712383941935,285,285,6.079809286418179,1732.745646629181,237.9712383941935,1732.745646629181,1732.7456466291812,-132.73041304385308,1732.7456466291812,0.6070175438596491,,,,,,,,,,,,1996s,001,"[90, 0]",3,
,,67,1996s,001,calibration_interleaved,black,unknown,34,0.47090191089840744,-0.11652402308997703,0,1,False,2.6205688000191003,True,dot,dot,nan,0.315596863663953,nan,nan,nan,nan,0,0,34,0.315596863663953,6.2040810084712845,986.4488803469342,288.13747068707875,159,159,6.2040810084712845,986.4488803469342,288.13747068707875,986.4488803469342,1072.7681604266875,26.578272744123048,1072.7681604266875,0.5911949685534591,,,,,,,,,,,,1996s,001,"[90, 0]",3,
,,68,1996s,001,calibration_interleaved,black,unknown,34,0.40766968306220214,-0.37360720091511007,90,0,False,3.2550516999326646,True,dot,square,nan,0.26932377702957805,nan,nan,nan,nan,90,-90,34,0.26932377702957805,5.8426606906423615,1151.0041560565453,383.11588688724737,197,197,5.8426606906423615,1151.0041560565453,383.11588688724737,1151.0041560565453,1151.0041560565458,-216.911863434647,1151.0041560565458,0.583756345177665,,,,,,,,,,,,1996s,001,"[90, 0]",3,
,,69,1996s,001,calibration_interleaved,black,unknown,35,0.47090191089840744,-0.11652402308997703,0,1,False,2.687800999963656,True,dot,dot,nan,0.3091324623123006,nan,nan,nan,nan,0,0,35,0.3091324623123006,3.703139678955844,603.6117676698026,67.18805301391416,163,163,3.703139678955844,603.6117676698026,67.18805301391416,603.6117676698026,677.1511142064755,11.586294845920108,677.1511142064755,0.44171779141104295,,,,,,,,,,,,1996s,001,"[90, 0]",3,
,,70,1996s,001,calibration_interleaved,black,unknown,35,0.40766968306220214,-0.37360720091511007,90,1,False,2.6379046998918056,True,square,square,-0.5810935355178144,0.25909260207611656,2.9841687113996405,1.7521618409718702,0.027851150307376518,0.021702230081627076,90,90,35,0.25909260207611656,5.017111082105287,802.7377731368459,253.2756380254225,160,160,5.017111082105287,802.7377731368459,253.2756380254225,802.7377731368459,803.4098821791931,32.13187566614578,803.4098821791931,0.40625,,,,,,,,,,,,1996s,001,"[90, 0]",3,
,,71,1996s,001,calibration_interleaved,black,unknown,36,0.47090191089840744,-0.11652402308997703,0,1,False,3.4041276001371443,True,dot,dot,nan,0.3030005186144409,nan,nan,nan,nan,0,0,36,0.3030005186144409,8.379091388576017,1726.0928260466594,183.80567786960341,206,206,8.379091388576017,1726.0928260466594,183.80567786960341,1726.0928260466594,1728.1187155941022,-64.88798931540101,1728.1187155941022,0.6359223300970874,,,,,,,,,,,,1996s,001,"[90, 0]",3,
,,72,1996s,001,calibration_interleaved,black,unknown,36,0.40766968306220214,-0.37360720091511007,90,0,False,3.1712861999403685,True,dot,square,nan,0.2744392682295968,nan,nan,nan,nan,90,90,36,0.2744392682295968,4.605991272169049,884.3503242564573,390.4971640290817,192,192,4.605991272169049,884.3503242564573,390.4971640290817,884.3503242564573,1067.664610729461,0.6628135100536524,1067.664610729461,0.5208333333333334,,,,,,,,,,,,1996s,001,"[90, 0]",3,
,,73,1996s,001,calibration_interleaved,black,unknown,37,0.47090191089840744,-0.11652402308997703,0,1,False,2.8212971999309957,True,dot,dot,nan,0.29724329484098533,nan,nan,nan,nan,0,0,37,0.29724329484098533,6.977196040230404,1193.100522879399,176.859323763515,171,171,6.977196040230404,1193.100522879399,176.859323763515,1193.100522879399,1278.6692013884797,-32.029704998404725,1278.6692013884797,0.5263157894736842,,,,,,,,,,,,1996s,001,"[90, 0]",3,
,,74,1996s,001,calibration_interleaved,black,unknown,37,0.47090191089840744,-0.11652402308997703,90,1,False,2.803823199821636,True,square,square,nan,0.26151075189622136,nan,nan,nan,nan,90,90,37,0.26151075189622136,5.794647403081066,985.0900585237812,122.5637059065549,170,170,5.794647403081066,985.0900585237812,122.5637059065549,985.0900585237812,1011.6250378375953,-16.397851153481653,1011.6250378375953,0.5294117647058824,,,,,,,,,,,,1996s,001,"[90, 0]",3,
,,75,1996s,001,calibration_interleaved,black,unknown,38,0.40766968306220214,-0.37360720091511007,0,1,False,2.1042226999998093,True,dot,dot,nan,0.2953577317066526,nan,nan,nan,nan,0,0,38,0.2953577317066526,4.640436123037829,593.9758237488421,61.996229682650565,128,128,4.640436123037829,593.9758237488421,61.996229682650565,593.9758237488421,627.1976241747177,-62.59683851368411,627.1976241747177,0.609375,,,,,,,,,,,,1996s,001,"[90, 0]",3,
,,76,1996s,001,calibration_interleaved,black,unknown,38,0.40766968306220214,-0.37360720091511007,90,1,False,3.0551837999373674,True,square,square,nan,0.2520889347739641,nan,nan,nan,nan,90,-90,38,0.2520889347739641,7.575211588361228,1401.414143846827,158.85882492754615,185,185,7.575211588361228,1401.414143846827,158.85882492754615,1401.414143846827,1427.7527847574165,3.186731259990372,1427.7527847574165,0.6162162162162163,,,,,,,,,,,,1996s,001,"[90, 0]",3,
,,77,1996s,001,calibration_interleaved,black,unknown,39,0.40766968306220214,-0.37360720091511007,0,0,False,3.237130899913609,True,dot,square,nan,0.2789830819171976,nan,nan,nan,nan,0,0,39,0.2789830819171976,7.3680910354641656,1444.1458429509764,295.04803777318625,196,196,7.3680910354641656,1444.1458429509764,295.04803777318625,1444.1458429509764,1444.1458429509764,12.213285187313375,1444.1458429509764,0.6683673469387755,,,,,,,,,,,,1996s,001,"[90, 0]",3,
,,78,1996s,001,calibration_interleaved,black,unknown,39,0.40766968306220214,-0.37360720091511007,90,1,False,3.3706936000380665,True,dot,dot,nan,0.24402342739573496,nan,nan,nan,nan,90,-90,39,0.24402342739573496,4.956382103082625,1011.1019490288554,230.1130347035201,204,204,4.956382103082625,1011.1019490288554,230.1130347035201,1011.1019490288554,1058.0385543091197,6.800594680377258,1058.0385543091197,0.5245098039215687,,,,,,,,,,,,1996s,001,"[90, 0]",3,
,,79,1996s,001,calibration_interleaved,black,unknown,40,0.47090191089840744,-0.11652402308997703,0,1,False,3.152308400021866,True,square,square,nan,0.27353067672761144,nan,nan,nan,nan,0,0,40,0.27353067672761144,7.043040936814795,1331.1347370579963,267.3106672750874,189,189,7.043040936814795,1331.1347370579963,267.3106672750874,1331.1347370579963,1335.5981239493015,-0.3153129978604763,1335.5981239493015,0.6243386243386243,,,,,,,,,,,,1996s,001,"[90, 0]",3,
,,80,1996s,001,calibration_interleaved,black,unknown,40,0.40766968306220214,-0.37360720091511007,90,1,False,3.2714722000528127,True,square,square,-0.579417107292602,0.23712096893860565,2.9683391031446593,1.7236045228520964,0.027805415194877406,0.02167801423788161,90,90,40,0.23712096893860565,3.456968078698964,684.4796795823949,252.98918631599182,198,198,3.456968078698964,684.4796795823949,252.98918631599182,684.4796795823949,799.0804267980286,-18.262573284430236,799.0804267980286,0.5454545454545454,,,,,,,,,,,,1996s,001,"[90, 0]",3,
,,81,1996s,001,calibration_interleaved,black,unknown,41,0.47090191089840744,-0.11652402308997703,0,1,False,3.3374739000573754,True,dot,dot,nan,0.26845608822909517,nan,nan,nan,nan,0,0,41,0.26845608822909517,4.895085437270829,988.8072583287076,330.9283616153975,202,202,4.895085437270829,988.8072583287076,330.9283616153975,988.8072583287076,1001.0542351842159,-178.0781583437167,1001.0542351842159,0.5742574257425742,,,,,,,,,,,,1996s,001,"[90, 0]",3,
,,82,1996s,001,calibration_interleaved,black,unknown,41,0.40766968306220214,-0.37360720091511007,90,0,False,4.771366499830037,True,dot,square,nan,0.24572798350868189,nan,nan,nan,nan,90,90,41,0.24572798350868189,7.343448727413023,2114.9132334949504,296.94897516090816,288,288,7.343448727413023,2114.9132334949504,296.94897516090816,2114.9132334949504,2166.9256473551845,-30.093437951459975,2166.9256473551845,0.6631944444444444,,,,,,,,,,,,1996s,001,"[90, 0]",3,
,,83,1996s,001,calibration_interleaved,black,unknown,42,0.47090191089840744,-0.11652402308997703,0,0,False,3.9381293999031186,True,dot,square,nan,0.26592785629809707,nan,nan,nan,nan,0,0,42,0.26592785629809707,8.890064648133022,2115.835386255659,152.34801392769293,238,238,8.890064648133022,2115.835386255659,152.34801392769293,2115.835386255659,2116.6040970924632,-40.15426129433271,2116.6040970924632,0.6764705882352942,,,,,,,,,,,,1996s,001,"[90, 0]",3,
,,84,1996s,001,calibration_interleaved,black,unknown,42,0.40766968306220214,-0.37360720091511007,90,1,False,3.4387674001045525,True,square,square,nan,0.23806784782986773,nan,nan,nan,nan,90,-90,42,0.23806784782986773,6.148749649126775,1278.9399270183692,240.1553283934318,208,208,6.148749649126775,1278.9399270183692,240.1553283934318,1278.9399270183692,1278.9399270183685,35.7899026622112,1278.9399270183685,0.7019230769230769,,,,,,,,,,,,1996s,001,"[90, 0]",3,
,,85,1996s,001,calibration_interleaved,black,unknown,43,0.47090191089840744,-0.11652402308997703,0,1,False,2.2059100999031216,True,square,square,nan,0.2613088021317311,nan,nan,nan,nan,0,0,43,0.2613088021317311,9.749952172965346,1306.4935911773564,278.435721656673,134,134,9.749952172965346,1306.4935911773564,278.435721656673,1306.4935911773564,1315.2679730987763,19.321290717744777,1315.2679730987763,0.6343283582089553,,,,,,,,,,,,1996s,001,"[90, 0]",3,
,,86,1996s,001,calibration_interleaved,black,unknown,43,0.40766968306220214,-0.37360720091511007,90,1,False,3.7376508999150246,True,square,square,nan,0.23147914238758724,nan,nan,nan,nan,90,90,43,0.23147914238758724,4.188567851742696,946.6163344938492,206.88187272853753,226,226,4.188567851742696,946.6163344938492,206.88187272853753,946.6163344938492,1133.6012375013768,7.213028296203104,1133.6012375013768,0.5398230088495575,,,,,,,,,,,,1996s,001,"[90, 0]",3,
,,87,1996s,001,calibration_interleaved,black,unknown,44,0.47090191089840744,-0.11652402308997703,0,0,False,3.837917600059882,True,dot,square,nan,0.259437913876245,nan,nan,nan,nan,0,0,44,0.259437913876245,7.0509513060232525,1635.8207029973946,256.88331805317114,232,232,7.0509513060232525,1635.8207029973946,256.88331805317114,1635.8207029973946,1636.986255465372,29.608837436743432,1636.986255465372,0.5775862068965517,,,,,,,,,,,,1996s,001,"[90, 0]",3,
,,88,1996s,001,calibration_interleaved,black,unknown,44,0.40766968306220214,-0.37360720091511007,90,1,False,3.120937100145966,True,dot,dot,nan,0.22579991453819206,nan,nan,nan,nan,90,-90,44,0.22579991453819206,5.75209340115357,1087.1456528180247,314.08499732200966,189,189,5.75209340115357,1087.1456528180247,314.08499732200966,1087.1456528180247,1088.2337219953959,-219.10034157155877,1088.2337219953959,0.5343915343915344,,,,,,,,,,,,1996s,001,"[90, 0]",3,
,,89,1996s,001,calibration_interleaved,black,unknown,45,0.47090191089840744,-0.11652402308997703,0,0,False,2.5230199999641627,True,dot,square,nan,0.2589353454037712,nan,nan,nan,nan,0,0,45,0.2589353454037712,9.019703857491534,1389.0343940536961,269.33021699846717,154,154,9.019703857491534,1389.0343940536961,269.33021699846717,1389.0343940536961,1389.034394053697,-0.01027599880415675,1389.034394053697,0.6363636363636364,,,,,,,,,,,,1996s,001,"[90, 0]",3,
,,90,1996s,001,calibration_interleaved,black,unknown,45,0.40766968306220214,-0.37360720091511007,90,1,False,4.288061999948695,True,dot,dot,-0.5809235796870118,0.22088707922602088,2.9254541046847944,1.6827393480111745,0.02779989818335856,0.021659678637462064,90,90,45,0.22088707922602088,3.9726892705322356,1028.926521067849,167.37180263753544,259,259,3.9726892705322356,1028.926521067849,167.37180263753544,1028.926521067849,1028.926521067849,-0.8471499064281778,1028.926521067849,0.47876447876447875,,,,,,,,,,,,1996s,001,"[90, 0]",3,
,,91,1996s,001,calibration_interleaved,black,unknown,46,0.5350820483873121,0.14055915473515587,0,1,False,3.9203246999531984,True,square,square,nan,0.25231883071644584,nan,nan,nan,nan,0,0,46,0.25231883071644584,12.623900624914812,2991.8644481048104,198.05713609124948,237,237,12.623900624914812,2991.8644481048104,198.05713609124948,2991.8644481048104,2994.5742641187703,11.0141814115485,2994.5742641187703,0.7257383966244726,,,,,,,,,,,,1996s,001,"[90, 0]",3,
,,92,1996s,001,calibration_interleaved,black,unknown,46,0.40766968306220214,-0.37360720091511007,90,nan,True,nan,False,dot,timeout,nan,0.22088707922602088,nan,nan,nan,nan,90,-90,46,0.22088707922602088,6.304131648106303,1897.5436260799972,202.90150854822207,nan,nan,nan,nan,nan,nan,nan,nan,nan,nan,,,,,,,,,,,,1996s,001,"[90, 0]",3,
,,93,1996s,001,calibration_interleaved,black,unknown,47,0.5350820483873121,0.14055915473515587,0,1,False,3.870923299808055,True,square,square,nan,0.2465113457820233,nan,nan,nan,nan,0,0,47,0.2465113457820233,12.729076240973512,2978.603840387802,186.13140483694445,234,234,12.729076240973512,2978.603840387802,186.13140483694445,2978.603840387802,2982.1272469378628,12.876875411082525,2982.1272469378628,0.782051282051282,,,,,,,,,,,,1996s,001,"[90, 0]",3,
,,94,1996s,001,calibration_interleaved,black,unknown,47,0.40766968306220214,-0.37360720091511007,90,1,False,3.3351543000899255,True,square,square,nan,0.2166174180981358,nan,nan,nan,nan,90,-90,47,0.2166174180981358,8.476607457196222,1712.274706353637,288.8203566149154,202,202,8.476607457196222,1712.274706353637,288.8203566149154,1712.274706353637,1712.2747063536365,6.299622537024576,1712.2747063536365,0.6782178217821783,,,,,,,,,,,,1996s,001,"[90, 0]",3,
,,95,1996s,001,calibration_interleaved,black,unknown,48,0.47090191089840744,-0.11652402308997703,0,0,False,4.1706153999548405,True,dot,square,nan,0.24506376708773606,nan,nan,nan,nan,0,0,48,0.24506376708773606,9.843941225084981,2480.673188721415,202.4625044934118,252,252,9.843941225084981,2480.673188721415,202.4625044934118,2480.673188721415,2480.90593654361,38.60439038172108,2480.90593654361,0.7063492063492064,,,,,,,,,,,,1996s,001,"[90, 0]",3,
,,96,1996s,001,calibration_interleaved,black,unknown,48,0.40766968306220214,-0.37360720091511007,90,1,False,4.205282400129363,True,square,square,nan,0.21288686863957712,nan,nan,nan,nan,90,90,48,0.21288686863957712,6.705816456955367,1703.2773800666632,238.35875501841508,254,254,6.705816456955367,1703.2773800666632,238.35875501841508,1703.2773800666632,1836.5035559666546,-2.2018476370134965,1836.5035559666546,0.6850393700787402,,,,,,,,,,,,1996s,001,"[90, 0]",3,
,,97,1996s,001,calibration_interleaved,black,unknown,49,0.5350820483873121,0.14055915473515587,0,1,False,3.604973299894482,True,square,square,nan,0.2391182192121853,nan,nan,nan,nan,0,0,49,0.2391182192121853,13.489039593413768,2940.6106313642013,217.29193713688156,218,218,13.489039593413768,2940.6106313642013,217.29193713688156,2940.6106313642013,2966.5139287780844,-3.6798237782204213,2966.5139287780844,0.7706422018348624,,,,,,,,,,,,1996s,001,"[90, 0]",3,
,,98,1996s,001,calibration_interleaved,black,unknown,49,0.40766968306220214,-0.37360720091511007,90,1,False,4.238398600136861,True,square,square,nan,0.2096088145456853,nan,nan,nan,nan,90,-90,49,0.2096088145456853,5.778442696445531,1479.2813302900558,271.54854945331,256,256,5.778442696445531,1479.2813302900558,271.54854945331,1479.2813302900558,1575.7071714017684,-13.73715545524064,1575.7071714017684,0.6015625,,,,,,,,,,,,1996s,001,"[90, 0]",3,
,,99,1996s,001,calibration_interleaved,black,unknown,50,0.5350820483873121,0.14055915473515587,0,1,False,3.7045783000066876,True,square,square,nan,0.23388245466705712,nan,nan,nan,nan,0,0,50,0.23388245466705712,9.956628204537225,2230.2847178163383,151.80453546498705,224,224,9.956628204537225,2230.2847178163383,151.80453546498705,2230.2847178163383,2270.5844192237464,6.231337992430481,2270.5844192237464,0.6964285714285714,,,,,,,,,,,,1996s,001,"[90, 0]",3,
,,100,1996s,001,calibration_interleaved,black,unknown,50,0.40766968306220214,-0.37360720091511007,90,0,False,4.087004499975592,True,dot,square,-0.5655113326402654,0.2107455266082067,2.8117616947233013,1.5828372941086075,0.028313897347358966,0.021706977913819776,90,90,50,0.2107455266082067,5.881961480205699,1452.8444856108076,274.41649773869045,247,247,5.881961480205699,1452.8444856108076,274.41649773869045,1452.8444856108076,1459.4038630013863,11.94045878631637,1459.4038630013863,0.5384615384615384,,,,,,,,,,,,1996s,001,"[90, 0]",3,
,,101,1996s,001,learning_90,yellow,high,,0.6084420222564921,0.4407680323471903,,1,False,3.2379844000097364,True,dot,dot,,,,,,,90,90,,,13.425198105223211,2631.3388286237496,199.28769298179722,196,196,13.425198105223211,2631.3388286237496,199.28769298179722,2631.3388286237496,2631.3388286237496,5.872626577660864,2631.3388286237496,0.7551020408163265,learning_fixed,1,individualized_calibration,0.2414297750189407,0.40766968306220214,,,,,,,1996s,001,"[90, 0]",3,
,,102,1996s,001,learning_90,red,low,,0.12355019032049691,-1.9592319676528094,,1,False,3.0208795000799,True,square,square,,,,,,,90,-90,,,1.2981249746934806,237.55687036890697,258.9676555467381,183,183,1.2981249746934806,237.55687036890697,258.9676555467381,237.55687036890697,448.4230908402558,-28.184979785816683,448.4230908402558,0.45901639344262296,learning_fixed,1,individualized_calibration,0.2414297750189407,0.40766968306220214,,,,,,,1996s,001,"[90, 0]",3,
,,103,1996s,001,learning_90,yellow,high,,0.6084420222564921,0.4407680323471903,,1,False,3.1544262999668717,True,dot,dot,,,,,,,90,-90,,,15.620378116033795,2983.492220162455,190.58586554042364,191,191,15.620378116033795,2983.492220162455,190.58586554042364,2983.492220162455,2984.363811885691,-4.347290613795538,2984.363811885691,0.806282722513089,learning_fixed,2,individualized_calibration,0.2414297750189407,0.40766968306220214,,,,,,,1996s,001,"[90, 0]",3,
,,104,1996s,001,learning_90,red,low,,0.12355019032049691,-1.9592319676528094,,1,False,2.6882243999280035,True,square,square,,,,,,,90,90,,,2.8553705940717733,465.42540683369907,323.33495787265565,163,163,2.8553705940717733,465.42540683369907,323.33495787265565,465.42540683369907,465.42540683369907,-12.392912727075922,465.42540683369907,0.5214723926380368,learning_fixed,2,individualized_calibration,0.2414297750189407,0.40766968306220214,,,,,,,1996s,001,"[90, 0]",3,
,,105,1996s,001,learning_90,red,low,,0.12355019032049691,-1.9592319676528094,,0,False,3.271180599927902,True,square,dot,,,,,,,90,-90,,,-2.9116165609384783,-576.5000790658187,311.06710302641966,198,198,-2.9116165609384783,-576.5000790658187,311.06710302641966,-576.5000790658187,171.9865390614038,-581.4359911712946,581.4359911712946,0.3686868686868687,learning_fixed,3,individualized_calibration,0.2414297750189407,0.40766968306220214,,,,,,,1996s,001,"[90, 0]",3,
,,106,1996s,001,learning_90,red,low,,0.12355019032049691,-1.9592319676528094,,0,False,2.7372606999706477,True,square,dot,,,,,,,90,-90,,,1.499702818288238,248.9506678358475,107.19035110935782,166,166,1.499702818288238,248.9506678358475,107.19035110935782,248.9506678358475,392.8369949567522,-175.2281543312526,392.8369949567522,0.45180722891566266,learning_fixed,4,individualized_calibration,0.2414297750189407,0.40766968306220214,,,,,,,1996s,001,"[90, 0]",3,
,,107,1996s,001,learning_90,yellow,high,,0.6084420222564921,0.4407680323471903,,1,False,3.7357734001707286,True,dot,dot,,,,,,,90,90,,,10.701545921656615,2418.549378294395,171.73244308400177,226,226,10.701545921656615,2418.549378294395,171.73244308400177,2418.549378294395,2421.277260357468,31.772570419041642,2421.277260357468,0.6858407079646017,learning_fixed,3,individualized_calibration,0.2414297750189407,0.40766968306220214,,,,,,,1996s,001,"[90, 0]",3,
,,108,1996s,001,learning_90,yellow,high,,0.6084420222564921,0.4407680323471903,,1,False,3.938695899909362,True,dot,dot,,,,,,,90,90,,,14.404418359492446,3428.2515695592024,246.81589780198757,238,238,14.404418359492446,3428.2515695592024,246.81589780198757,3428.2515695592024,3428.2515695592033,35.24288347431346,3428.2515695592033,0.7058823529411765,learning_fixed,4,individualized_calibration,0.2414297750189407,0.40766968306220214,,,,,,,1996s,001,"[90, 0]",3,
,,109,1996s,001,learning_90,red,low,,0.12355019032049691,-1.9592319676528094,,1,False,4.0047184999566525,True,dot,dot,,,,,,,90,90,,,0.529146577021619,128.05347163923182,429.60447992753177,242,242,0.529146577021619,128.05347163923182,429.60447992753177,128.05347163923182,583.3866406013659,-116.54033294280308,583.3866406013659,0.43388429752066116,learning_fixed,5,individualized_calibration,0.2414297750189407,0.40766968306220214,,,,,,,1996s,001,"[90, 0]",3,
,,110,1996s,001,learning_90,yellow,high,,0.6084420222564921,0.4407680323471903,,0,False,2.470559199806303,True,square,dot,,,,,,,90,90,,,14.156780572439311,2123.5170858658967,228.52008942794404,150,150,14.156780572439311,2123.5170858658967,228.52008942794404,2123.5170858658967,2123.5170858658967,36.36892926723769,2123.5170858658967,0.7666666666666667,learning_fixed,5,individualized_calibration,0.2414297750189407,0.40766968306220214,,,,,,,1996s,001,"[90, 0]",3,
,,111,1996s,001,learning_90,yellow,high,,0.6084420222564921,0.4407680323471903,,1,False,3.2038388999644667,True,dot,dot,,,,,,,90,90,,,12.325706972206843,2391.1871526081277,188.15340581715418,194,194,12.325706972206843,2391.1871526081277,188.15340581715418,2391.1871526081277,2394.77558142667,35.36644544707486,2394.77558142667,0.6804123711340206,learning_fixed,6,individualized_calibration,0.2414297750189407,0.40766968306220214,,,,,,,1996s,001,"[90, 0]",3,
,,112,1996s,001,learning_90,red,low,,0.12355019032049691,-1.9592319676528094,,1,False,2.5863266999367625,True,square,square,,,,,,,90,-90,,,-1.5933536184619543,-250.15651809852682,193.68588134036426,157,157,-1.5933536184619543,-250.15651809852682,193.68588134036426,-250.15651809852682,-1.687615717061786,-426.75762655183445,426.75762655183445,0.35668789808917195,learning_fixed,6,individualized_calibration,0.2414297750189407,0.40766968306220214,,,,,,,1996s,001,"[90, 0]",3,
,,113,1996s,001,learning_90,red,low,,0.12355019032049691,-1.9592319676528094,,1,False,3.91982590011321,True,square,square,,,,,,,90,90,,,1.979682897560825,469.1848467219155,245.16007887938878,237,237,1.979682897560825,469.1848467219155,245.16007887938878,469.1848467219155,534.7542701481185,-117.58068632408715,534.7542701481185,0.39662447257383965,learning_fixed,7,individualized_calibration,0.2414297750189407,0.40766968306220214,,,,,,,1996s,001,"[90, 0]",3,
,,114,1996s,001,learning_90,yellow,high,,0.6084420222564921,0.4407680323471903,,1,False,3.7204843999352306,True,dot,dot,,,,,,,90,90,,,13.36012817515504,3006.028839409884,193.74890739031727,225,225,13.36012817515504,3006.028839409884,193.74890739031727,3006.028839409884,3006.028839409881,11.301512788809536,3006.028839409881,0.7333333333333333,learning_fixed,7,individualized_calibration,0.2414297750189407,0.40766968306220214,,,,,,,1996s,001,"[90, 0]",3,
,,115,1996s,001,learning_90,red,low,,0.12355019032049691,-1.9592319676528094,,1,False,3.1552228000946343,True,square,square,,,,,,,90,-90,,,1.437341173561178,274.532164150185,112.03175305485935,191,191,1.437341173561178,274.532164150185,112.03175305485935,274.532164150185,274.53216415018505,-176.88134486593603,274.53216415018505,0.49214659685863876,learning_fixed,8,individualized_calibration,0.2414297750189407,0.40766968306220214,,,,,,,1996s,001,"[90, 0]",3,
,,116,1996s,001,learning_90,red,low,,0.12355019032049691,-1.9592319676528094,,1,False,2.9706520000472665,True,square,square,,,,,,,90,90,,,5.858470027251635,1054.5246049052944,138.96929258236338,180,180,5.858470027251635,1054.5246049052944,138.96929258236338,1054.5246049052944,1054.5246049052946,-87.62234417745357,1054.5246049052946,0.48333333333333334,learning_fixed,9,individualized_calibration,0.2414297750189407,0.40766968306220214,,,,,,,1996s,001,"[90, 0]",3,
,,117,1996s,001,learning_90,yellow,high,,0.6084420222564921,0.4407680323471903,,1,False,3.236286000115797,True,dot,dot,,,,,,,90,90,,,12.637359069554583,2476.922377632698,200.4646362134179,196,196,12.637359069554583,2476.922377632698,200.4646362134179,2476.922377632698,2476.922377632698,19.779765029369848,2476.922377632698,0.7704081632653061,learning_fixed,8,individualized_calibration,0.2414297750189407,0.40766968306220214,,,,,,,1996s,001,"[90, 0]",3,
,,118,1996s,001,learning_90,red,low,,0.12355019032049691,-1.9592319676528094,,0,False,4.004844499984756,True,dot,square,,,,,,,90,90,,,-3.5590999003266934,-861.3021758790599,143.25558225145085,242,242,-3.5590999003266934,-861.3021758790599,143.25558225145085,-861.3021758790599,115.5751306092776,-927.7821112799955,927.7821112799955,0.2603305785123967,learning_fixed,10,individualized_calibration,0.2414297750189407,0.40766968306220214,,,,,,,1996s,001,"[90, 0]",3,
,,119,1996s,001,learning_90,yellow,high,,0.6084420222564921,0.4407680323471903,,1,False,3.120193399954587,True,square,square,,,,,,,90,90,,,16.289367059946947,3078.690374329973,207.75926660886944,189,189,16.289367059946947,3078.690374329973,207.75926660886944,3078.690374329973,3078.690374329972,-0.09124562275959491,3078.690374329972,0.8359788359788359,learning_fixed,9,individualized_calibration,0.2414297750189407,0.40766968306220214,,,,,,,1996s,001,"[90, 0]",3,
,,120,1996s,001,learning_90,yellow,high,,0.6084420222564921,0.4407680323471903,,0,False,3.554725700058043,True,dot,square,,,,,,,90,-90,,,2.1990853938505355,472.8033596778651,25.30245370262201,215,215,2.1990853938505355,472.8033596778651,25.30245370262201,472.8033596778651,499.073583944232,-0.33777476107793136,499.073583944232,0.4790697674418605,learning_fixed,10,individualized_calibration,0.2414297750189407,0.40766968306220214,,,,,,,1996s,001,"[90, 0]",3,
,,121,1996s,001,learning_90,yellow,high,,0.6084420222564921,0.4407680323471903,,1,False,1.571490699891001,True,square,square,,,,,,,90,90,,,16.417742736472757,1576.1033027013846,184.87116544020765,96,96,16.417742736472757,1576.1033027013846,184.87116544020765,1576.1033027013846,1576.1033027013846,-4.9409100984653875,1576.1033027013846,0.8333333333333334,learning_fixed,11,individualized_calibration,0.2414297750189407,0.40766968306220214,,,,,,,1996s,001,"[90, 0]",3,
,,122,1996s,001,learning_90,red,low,,0.12355019032049691,-1.9592319676528094,,0,False,3.18802720005624,True,dot,square,,,,,,,90,90,,,-0.4808317430047995,-92.8005263999263,70.87262831859928,193,193,-0.4808317430047995,-92.8005263999263,70.87262831859928,-92.8005263999263,211.47439084739,-334.6099667650036,334.6099667650036,0.3471502590673575,learning_fixed,11,individualized_calibration,0.2414297750189407,0.40766968306220214,,,,,,,1996s,001,"[90, 0]",3,
,,123,1996s,001,learning_90,red,low,,0.12355019032049691,-1.9592319676528094,,1,False,3.4378643999807537,True,square,square,,,,,,,90,90,,,1.7563846535029057,365.3280079286044,144.73608063359785,208,208,1.7563846535029057,365.3280079286044,144.73608063359785,365.3280079286044,617.2716566349433,-21.462110035443995,617.2716566349433,0.3942307692307692,learning_fixed,12,individualized_calibration,0.2414297750189407,0.40766968306220214,,,,,,,1996s,001,"[90, 0]",3,
,,124,1996s,001,learning_90,red,low,,0.12355019032049691,-1.9592319676528094,,1,False,3.1880137999542058,True,square,square,,,,,,,90,-90,,,9.60949902894909,1854.6333125871743,170.71776222067956,193,193,9.60949902894909,1854.6333125871743,170.71776222067956,1854.6333125871743,1854.633312587175,8.803275383226453,1854.633312587175,0.6735751295336787,learning_fixed,13,individualized_calibration,0.2414297750189407,0.40766968306220214,,,,,,,1996s,001,"[90, 0]",3,
,,125,1996s,001,learning_90,yellow,high,,0.6084420222564921,0.4407680323471903,,1,False,4.08635209989734,True,square,square,,,,,,,90,90,,,13.250807699796182,3272.949501849657,187.5235302530319,247,247,13.250807699796182,3272.949501849657,187.5235302530319,3272.949501849657,3289.3038029729755,29.416366595247347,3289.3038029729755,0.7004048582995951,learning_fixed,12,individualized_calibration,0.2414297750189407,0.40766968306220214,,,,,,,1996s,001,"[90, 0]",3,
,,126,1996s,001,learning_90,red,low,,0.12355019032049691,-1.9592319676528094,,0,False,4.020825099898502,True,dot,square,,,,,,,90,90,,,1.77591831400474,431.54815030315183,255.49681956158696,243,243,1.77591831400474,431.54815030315183,255.49681956158696,431.54815030315183,947.9452417949645,-60.700415954515954,947.9452417949645,0.42386831275720166,learning_fixed,14,individualized_calibration,0.2414297750189407,0.40766968306220214,,,,,,,1996s,001,"[90, 0]",3,
,,127,1996s,001,learning_90,red,low,,0.12355019032049691,-1.9592319676528094,,0,False,4.555903600063175,True,dot,square,,,,,,,90,90,,,0.9054498220252315,248.99870105693867,289.0816934883321,275,275,0.9054498220252315,248.99870105693867,289.0816934883321,248.99870105693867,255.68766228890343,-429.40140483715766,429.40140483715766,0.4581818181818182,learning_fixed,15,individualized_calibration,0.2414297750189407,0.40766968306220214,,,,,,,1996s,001,"[90, 0]",3,
,,128,1996s,001,learning_90,yellow,high,,0.6084420222564921,0.4407680323471903,,nan,True,nan,False,square,timeout,,,,,,,90,90,,,13.950406367822128,4199.072316714461,206.87031246029605,nan,nan,nan,nan,nan,nan,nan,nan,nan,nan,learning_fixed,13,individualized_calibration,0.2414297750189407,0.40766968306220214,,,,,,,1996s,001,"[90, 0]",3,
,,129,1996s,001,learning_90,yellow,high,,0.6084420222564921,0.4407680323471903,,1,False,2.8022805999498814,True,square,square,,,,,,,90,90,,,12.515016691799818,2127.552837605969,202.3758110663092,170,170,12.515016691799818,2127.552837605969,202.3758110663092,2127.552837605969,2127.6687465805917,24.96616524545167,2127.6687465805917,0.7058823529411765,learning_fixed,14,individualized_calibration,0.2414297750189407,0.40766968306220214,,,,,,,1996s,001,"[90, 0]",3,
,,130,1996s,001,learning_90,yellow,high,,0.6084420222564921,0.4407680323471903,,0,False,4.256189999869093,True,dot,square,,,,,,,90,-90,,,8.988517594829391,2310.0490218711534,187.62418922619347,257,257,8.988517594829391,2310.0490218711534,187.62418922619347,2310.0490218711534,2346.5592218730308,0.349740494006563,2346.5592218730308,0.6108949416342413,learning_fixed,15,individualized_calibration,0.2414297750189407,0.40766968306220214,,,,,,,1996s,001,"[90, 0]",3,
,,131,1996s,001,learning_90,yellow,high,,0.6084420222564921,0.4407680323471903,,1,False,3.636976100038737,True,square,square,,,,,,,90,-90,,,10.458758489576512,2300.9268677068326,177.62051289265793,220,220,10.458758489576512,2300.9268677068326,177.62051289265793,2300.9268677068326,2303.566418805882,17.30918911812741,2303.566418805882,0.7272727272727273,learning_fixed,16,individualized_calibration,0.2414297750189407,0.40766968306220214,,,,,,,1996s,001,"[90, 0]",3,
,,132,1996s,001,learning_90,red,low,,0.12355019032049691,-1.9592319676528094,,nan,True,nan,False,dot,timeout,,,,,,,90,-90,,,-0.4065710694672141,-122.37789190963144,240.6260346109089,nan,nan,nan,nan,nan,nan,nan,nan,nan,nan,learning_fixed,16,individualized_calibration,0.2414297750189407,0.40766968306220214,,,,,,,1996s,001,"[90, 0]",3,
,,133,1996s,001,learning_90,red,low,,0.12355019032049691,-1.9592319676528094,,nan,True,nan,False,square,timeout,,,,,,,90,-90,,,1.377527758789263,414.6358553955681,255.044298230673,nan,nan,nan,nan,nan,nan,nan,nan,nan,nan,learning_fixed,17,individualized_calibration,0.2414297750189407,0.40766968306220214,,,,,,,1996s,001,"[90, 0]",3,
,,134,1996s,001,learning_90,yellow,high,,0.6084420222564921,0.4407680323471903,,1,False,1.2706852999981493,True,square,square,,,,,,,90,90,,,13.932024463885467,1086.6979081830664,166.51694551784408,78,78,13.932024463885467,1086.6979081830664,166.51694551784408,1086.6979081830664,1086.6979081830664,11.668917256880501,1086.6979081830664,0.7692307692307693,learning_fixed,17,individualized_calibration,0.2414297750189407,0.40766968306220214,,,,,,,1996s,001,"[90, 0]",3,
,,135,1996s,001,learning_90,yellow,high,,0.6084420222564921,0.4407680323471903,,1,False,1.2219308000057936,True,dot,dot,,,,,,,90,-90,,,15.133797369535898,1135.0348027151924,220.85212062614625,75,75,15.133797369535898,1135.0348027151924,220.85212062614625,1135.0348027151924,1137.2831716217809,0.30240052305649545,1137.2831716217809,0.7733333333333333,learning_fixed,18,individualized_calibration,0.2414297750189407,0.40766968306220214,,,,,,,1996s,001,"[90, 0]",3,
,,136,1996s,001,learning_90,red,low,,0.12355019032049691,-1.9592319676528094,,1,False,3.837300900137052,True,square,square,,,,,,,90,-90,,,0.8334835317580297,193.3681793678629,361.6050314843737,232,232,0.8334835317580297,193.3681793678629,361.6050314843737,193.3681793678629,409.3548890655276,-237.4332370560564,409.3548890655276,0.4482758620689655,learning_fixed,18,individualized_calibration,0.2414297750189407,0.40766968306220214,,,,,,,1996s,001,"[90, 0]",3,
,,137,1996s,001,learning_90,red,low,,0.12355019032049691,-1.9592319676528094,,0,False,4.271256199805066,True,square,dot,,,,,,,90,90,,,3.253299193578698,839.3511919433041,301.72461044650424,258,258,3.253299193578698,839.3511919433041,301.72461044650424,839.3511919433041,839.3511919433041,-144.6220183289529,839.3511919433041,0.5116279069767442,learning_fixed,19,individualized_calibration,0.2414297750189407,0.40766968306220214,,,,,,,1996s,001,"[90, 0]",3,
,,138,1996s,001,learning_90,red,low,,0.12355019032049691,-1.9592319676528094,,1,False,0.40354590001516044,True,square,square,,,,,,,90,-90,,,4.265076626888499,110.89199229910096,629.7450912280106,26,26,4.265076626888499,110.89199229910096,629.7450912280106,110.89199229910096,206.53847110102893,-140.04026685677164,206.53847110102893,0.5,learning_fixed,20,individualized_calibration,0.2414297750189407,0.40766968306220214,,,,,,,1996s,001,"[90, 0]",3,
,,139,1996s,001,learning_90,yellow,high,,0.6084420222564921,0.4407680323471903,,0,False,1.2734924000687897,True,dot,square,,,,,,,90,-90,,,15.356190728644107,1197.7828768342404,210.92180106493723,78,78,15.356190728644107,1197.7828768342404,210.92180106493723,1197.7828768342404,1197.7828768342406,24.521954809201002,1197.7828768342406,0.782051282051282,learning_fixed,19,individualized_calibration,0.2414297750189407,0.40766968306220214,,,,,,,1996s,001,"[90, 0]",3,
,,140,1996s,001,learning_90,yellow,high,,0.6084420222564921,0.4407680323471903,,0,False,1.5545325998682529,True,square,dot,,,,,,,90,90,,,18.023611185426564,1730.2666738009502,206.61849969351715,96,96,18.023611185426564,1730.2666738009502,206.61849969351715,1730.2666738009502,1749.7790948321988,35.23357679643692,1749.7790948321988,0.84375,learning_fixed,20,individualized_calibration,0.2414297750189407,0.40766968306220214,,,,,,,1996s,001,"[90, 0]",3,
,,141,1996s,001,learning_90,yellow,high,,0.6084420222564921,0.4407680323471903,,1,False,2.7553268999326974,True,square,square,,,,,,,90,90,,,13.290130827220048,2219.451848145748,162.10357866078868,167,167,13.290130827220048,2219.451848145748,162.10357866078868,2219.451848145748,2219.451848145747,5.365686121744832,2219.451848145747,0.8023952095808383,learning_fixed,21,individualized_calibration,0.2414297750189407,0.40766968306220214,,,,,,,1996s,001,"[90, 0]",3,
,,142,1996s,001,learning_90,red,low,,0.12355019032049691,-1.9592319676528094,,0,False,1.8535233000293374,True,dot,square,,,,,,,90,90,,,-0.9710712023265402,-109.73104586289904,252.0666577700959,113,113,-0.9710712023265402,-109.73104586289904,252.0666577700959,-109.73104586289904,195.7383865260418,-109.73104586289908,195.7383865260418,0.40707964601769914,learning_fixed,21,individualized_calibration,0.2414297750189407,0.40766968306220214,,,,,,,1996s,001,"[90, 0]",3,
,,143,1996s,001,learning_90,yellow,high,,0.6084420222564921,0.4407680323471903,,1,False,0.12151420000009239,True,square,square,,,,,,,90,-90,,,-0.6669794141847716,-6.002814727662944,0.14079233016116985,9,9,-0.6669794141847716,-6.002814727662944,0.14079233016116985,-6.002814727662944,-0.5907847856079563,-6.002814727662944,6.002814727662944,0.0,learning_fixed,22,individualized_calibration,0.2414297750189407,0.40766968306220214,,,,,,,1996s,001,"[90, 0]",3,
,,144,1996s,001,learning_90,red,low,,0.12355019032049691,-1.9592319676528094,,0,False,0.15347069990821183,True,square,dot,,,,,,,90,90,,,8.53601644614857,93.89618090763427,345.67970832415114,11,11,8.53601644614857,93.89618090763427,345.67970832415114,93.89618090763427,112.7746296832641,38.93763175311818,112.7746296832641,0.2727272727272727,learning_fixed,22,individualized_calibration,0.2414297750189407,0.40766968306220214,,,,,,,1996s,001,"[90, 0]",3,
,,145,1996s,001,learning_90,yellow,high,,0.6084420222564921,0.4407680323471903,,0,False,0.13764979992993176,True,square,dot,,,,,,,90,-90,,,16.746616342558646,167.46616342558644,285.6758977647468,10,10,16.746616342558646,167.46616342558644,285.6758977647468,167.46616342558644,167.46616342558644,32.054470797806545,167.46616342558644,0.5,learning_fixed,23,individualized_calibration,0.2414297750189407,0.40766968306220214,,,,,,,1996s,001,"[90, 0]",3,
,,146,1996s,001,learning_90,yellow,high,,0.6084420222564921,0.4407680323471903,,0,False,0.18671509996056557,True,square,dot,,,,,,,90,-90,,,2.2980691685787757,29.874899191524083,19.69901636366257,13,13,2.2980691685787757,29.874899191524083,19.69901636366257,29.874899191524083,33.85729073526071,11.169374837655939,33.85729073526071,0.3076923076923077,learning_fixed,24,individualized_calibration,0.2414297750189407,0.40766968306220214,,,,,,,1996s,001,"[90, 0]",3,
,,147,1996s,001,learning_90,yellow,high,,0.6084420222564921,0.4407680323471903,,1,False,0.23703860002569854,True,dot,dot,,,,,,,90,-90,,,5.050212630519082,80.80340208830532,56.520470976284315,16,16,5.050212630519082,80.80340208830532,56.520470976284315,80.80340208830532,84.20548237677892,18.93071134878474,84.20548237677892,0.375,learning_fixed,25,individualized_calibration,0.2414297750189407,0.40766968306220214,,,,,,,1996s,001,"[90, 0]",3,
,,148,1996s,001,learning_90,red,low,,0.12355019032049691,-1.9592319676528094,,1,False,0.2541358000598848,True,dot,dot,,,,,,,90,-90,,,-2.7515356126367063,-46.77610541482401,11.9960778918358,17,17,-2.7515356126367063,-46.77610541482401,11.9960778918358,-46.77610541482401,-1.2224974682580887,-46.776105414824016,46.776105414824016,0.11764705882352941,learning_fixed,23,individualized_calibration,0.2414297750189407,0.40766968306220214,,,,,,,1996s,001,"[90, 0]",3,
,,149,1996s,001,learning_90,red,low,,0.12355019032049691,-1.9592319676528094,,0,False,0.4046012000180781,True,square,dot,,,,,,,90,90,,,4.266545793801044,110.93019063882716,19.56812007585858,26,26,4.266545793801044,110.93019063882716,19.56812007585858,110.93019063882716,111.01559101044919,0.12658825266122226,111.01559101044919,0.6923076923076923,learning_fixed,24,individualized_calibration,0.2414297750189407,0.40766968306220214,,,,,,,1996s,001,"[90, 0]",3,
,,150,1996s,001,learning_90,yellow,high,,0.6084420222564921,0.4407680323471903,,1,False,2.738062300020829,True,square,square,,,,,,,90,90,,,15.090347557122849,2504.997694482393,179.7393783850952,166,166,15.090347557122849,2504.997694482393,179.7393783850952,2504.997694482393,2504.997694482393,9.08829047362173,2504.997694482393,0.8614457831325302,learning_fixed,26,individualized_calibration,0.2414297750189407,0.40766968306220214,,,,,,,1996s,001,"[90, 0]",3,
,,151,1996s,001,learning_90,red,low,,0.12355019032049691,-1.9592319676528094,,1,False,0.9532236999366432,True,square,square,,,,,,,90,-90,,,-0.15918372283819168,-9.39183964745331,224.09893195718732,59,59,-0.15918372283819168,-9.39183964745331,224.09893195718732,-9.39183964745331,-9.391839647453295,-305.6040988671402,305.6040988671402,0.4406779661016949,learning_fixed,25,individualized_calibration,0.2414297750189407,0.40766968306220214,,,,,,,1996s,001,"[90, 0]",3,
,,152,1996s,001,learning_90,yellow,high,,0.6084420222564921,0.4407680323471903,,1,False,1.1559578999876976,True,square,square,,,,,,,90,-90,,,15.925940142746823,1146.6676902777713,232.88463247997186,72,72,15.925940142746823,1146.6676902777713,232.88463247997186,1146.6676902777713,1146.6676902777717,-7.093877330530457,1146.6676902777717,0.75,learning_fixed,27,individualized_calibration,0.2414297750189407,0.40766968306220214,,,,,,,1996s,001,"[90, 0]",3,
,,153,1996s,001,learning_90,yellow,high,,0.6084420222564921,0.4407680323471903,,0,False,1.715963700087741,True,dot,square,,,,,,,90,90,,,12.077435846886633,1268.1307639230965,193.35120378417352,105,105,12.077435846886633,1268.1307639230965,193.35120378417352,1268.1307639230965,1268.1307639230956,0.5140864764441511,1268.1307639230956,0.8476190476190476,learning_fixed,28,individualized_calibration,0.2414297750189407,0.40766968306220214,,,,,,,1996s,001,"[90, 0]",3,
,,154,1996s,001,learning_90,red,low,,0.12355019032049691,-1.9592319676528094,,1,False,1.8369785000104457,True,square,square,,,,,,,90,90,,,2.332248448833657,261.21182626936957,226.65125626448213,112,112,2.332248448833657,261.21182626936957,226.65125626448213,261.21182626936957,261.2118262693695,-156.90308992910585,261.2118262693695,0.4642857142857143,learning_fixed,26,individualized_calibration,0.2414297750189407,0.40766968306220214,,,,,,,1996s,001,"[90, 0]",3,
,,155,1996s,001,learning_90,red,low,,0.12355019032049691,-1.9592319676528094,,1,False,1.4716052999719977,True,square,square,,,,,,,90,90,,,1.6086268921001425,144.77642028901283,359.3132193887106,90,90,1.6086268921001425,144.77642028901283,359.3132193887106,144.77642028901283,317.5050158311089,-162.7337503051697,317.5050158311089,0.5111111111111111,learning_fixed,27,individualized_calibration,0.2414297750189407,0.40766968306220214,,,,,,,1996s,001,"[90, 0]",3,
,,156,1996s,001,learning_90,yellow,high,,0.6084420222564921,0.4407680323471903,,0,False,1.6384461000561714,True,dot,square,,,,,,,90,-90,,,14.60236606451568,1460.236606451568,223.05394332979674,100,100,14.60236606451568,1460.236606451568,223.05394332979674,1460.236606451568,1475.8390792487992,0.1120502739496815,1475.8390792487992,0.72,learning_fixed,29,individualized_calibration,0.2414297750189407,0.40766968306220214,,,,,,,1996s,001,"[90, 0]",3,
,,157,1996s,001,learning_90,red,low,,0.12355019032049691,-1.9592319676528094,,0,False,1.2541985001880676,True,square,dot,,,,,,,90,90,,,5.002605686355815,385.20063784939776,371.52296715712214,77,77,5.002605686355815,385.20063784939776,371.52296715712214,385.20063784939776,385.20063784939776,11.408364976515692,385.20063784939776,0.5844155844155844,learning_fixed,28,individualized_calibration,0.2414297750189407,0.40766968306220214,,,,,,,1996s,001,"[90, 0]",3,
,,158,1996s,001,learning_90,red,low,,0.12355019032049691,-1.9592319676528094,,1,False,0.28730950015597045,True,dot,dot,,,,,,,90,-90,,,-5.039380746742414,-95.74823418810587,97.4764057540286,19,19,-5.039380746742414,-95.74823418810587,97.4764057540286,-95.74823418810587,-32.013081782104834,-113.88717863580254,113.88717863580254,0.2631578947368421,learning_fixed,29,individualized_calibration,0.2414297750189407,0.40766968306220214,,,,,,,1996s,001,"[90, 0]",3,
,,159,1996s,001,learning_90,yellow,high,,0.6084420222564921,0.4407680323471903,,1,False,0.2191274999640882,True,dot,dot,,,,,,,90,-90,,,8.869854053312187,133.0478107996828,198.55497734431256,15,15,8.869854053312187,133.0478107996828,198.55497734431256,133.0478107996828,133.0478107996828,-0.8261073330055878,133.0478107996828,0.4,learning_fixed,30,individualized_calibration,0.2414297750189407,0.40766968306220214,,,,,,,1996s,001,"[90, 0]",3,
,,160,1996s,001,learning_90,red,low,,0.12355019032049691,-1.9592319676528094,,1,False,0.3734455998055637,True,dot,dot,,,,,,,90,90,,,5.098307838714753,122.35938812915407,51.89627974627823,24,24,5.098307838714753,122.35938812915407,51.89627974627823,122.35938812915407,122.35938812915406,-4.701957722540975,122.35938812915406,0.4583333333333333,learning_fixed,30,individualized_calibration,0.2414297750189407,0.40766968306220214,,,,,,,1996s,001,"[90, 0]",3,
,,161,1996s,001,test_90,red,,,0.12355019032049691,-1.9592319676528094,,0,False,3.969616899965331,True,dot,square,,,,,,,90,90,,,1.6570732530242105,397.6975807258105,203.93025712610546,240,240,1.6570732530242105,397.6975807258105,203.93025712610546,397.6975807258105,401.0001273127162,-211.76909012029793,401.0001273127162,0.45416666666666666,test_learning_hard,1,individualized_calibration,0.2414297750189407,0.40766968306220214,low,hard,60pct,1,3,0.32818957714686336,1996s,001,"[90, 0]",3,
,,162,1996s,001,test_90,red,,,0.12355019032049691,-1.9592319676528094,,0,False,3.654561399947852,True,dot,square,,,,,,,90,90,,,1.5649605998766056,345.85629257272984,379.23918097671304,221,221,1.5649605998766056,345.85629257272984,379.23918097671304,345.85629257272984,345.8562925727298,-209.07488263323262,345.8562925727298,0.4479638009049774,test_learning_hard,2,individualized_calibration,0.2414297750189407,0.40766968306220214,low,hard,60pct,2,2,0.32818957714686336,1996s,001,"[90, 0]",3,
,,163,1996s,001,test_90,yellow,,,0.32818957714686336,-0.7163847713486207,,1,False,3.2010848000645638,True,dot,dot,,,,,,,90,90,,,3.617918752250751,701.8762379366457,343.3931577088284,194,194,3.617918752250751,701.8762379366457,343.3931577088284,701.8762379366457,705.9747168336713,-108.64239188311466,705.9747168336713,0.4793814432989691,test_medium,1,individualized_calibration,0.2414297750189407,0.40766968306220214,high,medium,70pct,2,2,0.32818957714686336,1996s,001,"[90, 0]",3,
,,164,1996s,001,test_90,red,,,0.32818957714686336,-0.7163847713486207,,1,False,3.271809000056237,True,dot,dot,,,,,,,90,-90,,,5.038662010997841,997.6550781775726,289.4437398189892,198,198,5.038662010997841,997.6550781775726,289.4437398189892,997.6550781775726,1161.0212992318266,-24.653340851330086,1161.0212992318266,0.5707070707070707,test_medium,1,individualized_calibration,0.2414297750189407,0.40766968306220214,low,medium,70pct,4,3,0.32818957714686336,1996s,001,"[90, 0]",3,
,,165,1996s,001,test_90,red,,,0.32818957714686336,-0.7163847713486207,,0,False,3.4708527999464422,True,dot,square,,,,,,,90,-90,,,3.0887417096938257,648.6357590357034,417.18762610002085,210,210,3.0887417096938257,648.6357590357034,417.18762610002085,648.6357590357034,756.9771580071359,-143.23145492759508,756.9771580071359,0.5666666666666667,test_medium,2,individualized_calibration,0.2414297750189407,0.40766968306220214,low,medium,70pct,2,2,0.32818957714686336,1996s,001,"[90, 0]",3,
,,166,1996s,001,test_90,red,,,0.32818957714686336,-0.7163847713486207,,1,False,3.302048800047487,True,dot,dot,,,,,,,90,-90,,,4.790902485301125,958.180497060225,528.5311935662572,200,200,4.790902485301125,958.180497060225,528.5311935662572,958.180497060225,958.1804970602251,-83.36878465662949,958.1804970602251,0.545,test_medium,3,individualized_calibration,0.2414297750189407,0.40766968306220214,low,medium,70pct,4,6,0.32818957714686336,1996s,001,"[90, 0]",3,
,,167,1996s,001,test_90,yellow,,,0.32818957714686336,-0.7163847713486207,,1,False,3.787930600112304,True,dot,dot,,,,,,,90,90,,,3.721439793732829,852.2097127648178,488.6592070650444,229,229,3.721439793732829,852.2097127648178,488.6592070650444,852.2097127648178,853.0918629971444,-142.84466340815803,853.0918629971444,0.49344978165938863,test_medium,2,individualized_calibration,0.2414297750189407,0.40766968306220214,high,medium,70pct,3,2,0.32818957714686336,1996s,001,"[90, 0]",3,
,,168,1996s,001,test_90,red,,,0.32818957714686336,-0.7163847713486207,,1,False,3.221770199947059,True,square,square,,,,,,,90,-90,,,3.731773460595845,727.6958248161898,377.0624999716288,195,195,3.731773460595845,727.6958248161898,377.0624999716288,727.6958248161898,788.5902502562252,-166.61814612548352,788.5902502562252,0.5230769230769231,test_medium,4,individualized_calibration,0.2414297750189407,0.40766968306220214,low,medium,70pct,3,4,0.32818957714686336,1996s,001,"[90, 0]",3,
,,169,1996s,001,test_90,yellow,,,0.6084420222564921,0.4407680323471903,,0,False,3.5880656999070197,True,dot,square,,,,,,,90,-90,,,12.00489629602313,2605.0624962370193,233.60936758274417,217,217,12.00489629602313,2605.0624962370193,233.60936758274417,2605.0624962370193,2605.4233915087025,37.61039677349878,2605.4233915087025,0.5576036866359447,test_learning_easy,1,individualized_calibration,0.2414297750189407,0.40766968306220214,high,easy,80pct,4,7,0.32818957714686336,1996s,001,"[90, 0]",3,
,,170,1996s,001,test_90,yellow,,,0.6084420222564921,0.4407680323471903,,1,False,2.6548830000683665,True,dot,dot,,,,,,,90,90,,,12.39728226719242,1995.9624450179795,224.09057141043817,161,161,12.39728226719242,1995.9624450179795,224.09057141043817,1995.9624450179795,1996.8811980458925,2.7817569420989767,1996.8811980458925,0.6335403726708074,test_learning_easy,2,individualized_calibration,0.2414297750189407,0.40766968306220214,high,easy,80pct,4,7,0.32818957714686336,1996s,001,"[90, 0]",3,
,,171,1996s,001,test_90,red,,,0.12355019032049691,-1.9592319676528094,,0,False,3.686412699986249,True,dot,square,,,,,,,90,90,,,0.6016992510666614,134.1789329878655,282.54407795379115,223,223,0.6016992510666614,134.1789329878655,282.54407795379115,134.1789329878655,458.3662822804704,-174.25013458644068,458.3662822804704,0.4618834080717489,test_learning_hard,3,individualized_calibration,0.2414297750189407,0.40766968306220214,low,hard,60pct,3,2,0.32818957714686336,1996s,001,"[90, 0]",3,
,,172,1996s,001,test_90,red,,,0.32818957714686336,-0.7163847713486207,,0,False,3.0210985001176596,True,dot,square,,,,,,,90,90,,,3.1463878297992833,575.7889728532689,360.84285628608575,183,183,3.1463878297992833,575.7889728532689,360.84285628608575,575.7889728532689,665.2896261688921,-114.32035862872448,665.2896261688921,0.48633879781420764,test_medium,5,individualized_calibration,0.2414297750189407,0.40766968306220214,low,medium,70pct,3,4,0.32818957714686336,1996s,001,"[90, 0]",3,
,,173,1996s,001,test_90,yellow,,,0.32818957714686336,-0.7163847713486207,,1,False,4.170378900133073,True,square,square,,,,,,,90,-90,,,1.9205733243384093,478.2227577602639,232.42448014607,249,249,1.9205733243384093,478.2227577602639,232.42448014607,478.2227577602639,557.0427422815991,-73.02807567942382,557.0427422815991,0.42168674698795183,test_medium,3,individualized_calibration,0.2414297750189407,0.40766968306220214,high,medium,70pct,1,4,0.32818957714686336,1996s,001,"[90, 0]",3,
,,174,1996s,001,test_90,red,,,0.32818957714686336,-0.7163847713486207,,0,False,3.7705035000108182,True,square,dot,,,,,,,90,90,,,3.1466502316294798,717.4362528115214,351.31166017510134,228,228,3.1466502316294798,717.4362528115214,351.31166017510134,717.4362528115214,717.9312175847597,-268.5574133221451,717.9312175847597,0.543859649122807,test_medium,6,individualized_calibration,0.2414297750189407,0.40766968306220214,low,medium,70pct,3,3,0.32818957714686336,1996s,001,"[90, 0]",3,
,,175,1996s,001,test_90,yellow,,,0.32818957714686336,-0.7163847713486207,,0,False,3.0213031999301165,True,dot,square,,,,,,,90,90,,,3.519341340664649,644.0394653416308,133.97373813526116,183,183,3.519341340664649,644.0394653416308,133.97373813526116,644.0394653416308,644.359692064829,38.44341998391392,644.359692064829,0.6120218579234973,test_medium,4,individualized_calibration,0.2414297750189407,0.40766968306220214,high,medium,70pct,3,3,0.32818957714686336,1996s,001,"[90, 0]",3,
,,176,1996s,001,test_90,yellow,,,0.32818957714686336,-0.7163847713486207,,1,False,4.302529999986291,True,dot,dot,,,,,,,90,90,,,1.4566896751448115,378.739315537651,240.08922361445445,260,260,1.4566896751448115,378.739315537651,240.08922361445445,378.739315537651,736.6173388794994,-76.99139734910163,736.6173388794994,0.46153846153846156,test_medium,5,individualized_calibration,0.2414297750189407,0.40766968306220214,high,medium,70pct,4,5,0.32818957714686336,1996s,001,"[90, 0]",3,
,,177,1996s,001,test_90,yellow,,,0.6084420222564921,0.4407680323471903,,1,False,2.219676800072193,True,dot,dot,,,,,,,90,90,,,10.778347955603504,1455.076974006473,167.75849764477465,135,135,10.778347955603504,1455.076974006473,167.75849764477465,1455.076974006473,1455.0769740064727,33.261903122219834,1455.0769740064727,0.6592592592592592,test_learning_easy,3,individualized_calibration,0.2414297750189407,0.40766968306220214,high,easy,80pct,4,4,0.32818957714686336,1996s,001,"[90, 0]",3,
,,178,1996s,001,test_90,yellow,,,0.32818957714686336,-0.7163847713486207,,1,False,3.7709329000208527,True,square,square,,,,,,,90,-90,,,3.7366801944073793,851.9630843248825,410.55879588364627,228,228,3.7366801944073793,851.9630843248825,410.55879588364627,851.9630843248825,1029.6093107521197,-86.36947408414434,1029.6093107521197,0.5307017543859649,test_medium,6,individualized_calibration,0.2414297750189407,0.40766968306220214,high,medium,70pct,3,3,0.32818957714686336,1996s,001,"[90, 0]",3,
,,179,1996s,001,test_90,yellow,,,0.6084420222564921,0.4407680323471903,,1,False,3.1384297001641244,True,dot,dot,,,,,,,90,90,,,12.314503925866823,2339.7557459146965,211.53201761825613,190,190,12.314503925866823,2339.7557459146965,211.53201761825613,2339.7557459146965,2339.755745914698,37.17721156999431,2339.755745914698,0.631578947368421,test_learning_easy,4,individualized_calibration,0.2414297750189407,0.40766968306220214,high,easy,80pct,4,7,0.32818957714686336,1996s,001,"[90, 0]",3,
,,180,1996s,001,test_90,yellow,,,0.6084420222564921,0.4407680323471903,,1,False,2.871464299969375,True,dot,dot,,,,,,,90,90,,,11.975635373156411,2083.7605549292157,173.79086596224616,174,174,11.975635373156411,2083.7605549292157,173.79086596224616,2083.7605549292157,2083.7605549292175,29.177788144315638,2083.7605549292175,0.6896551724137931,test_learning_easy,5,individualized_calibration,0.2414297750189407,0.40766968306220214,high,easy,80pct,4,7,0.32818957714686336,1996s,001,"[90, 0]",3,
,,181,1996s,001,test_90,yellow,,,0.32818957714686336,-0.7163847713486207,,1,False,4.170945099787787,True,square,square,,,,,,,90,-90,,,4.45020194121377,1121.45088918587,254.00554142826792,252,252,4.45020194121377,1121.45088918587,254.00554142826792,1121.45088918587,1121.4508891858698,38.049305941908315,1121.4508891858698,0.5079365079365079,test_medium,7,individualized_calibration,0.2414297750189407,0.40766968306220214,high,medium,70pct,3,3,0.32818957714686336,1996s,001,"[90, 0]",3,
,,182,1996s,001,test_90,yellow,,,0.6084420222564921,0.4407680323471903,,1,False,3.2378938000183553,True,square,square,,,,,,,90,90,,,12.961313014566363,2540.417350855007,191.99027272370816,196,196,12.961313014566363,2540.417350855007,191.99027272370816,2540.417350855007,2541.8485230361243,-1.332721103775005,2541.8485230361243,0.6938775510204082,test_learning_easy,6,individualized_calibration,0.2414297750189407,0.40766968306220214,high,easy,80pct,4,5,0.32818957714686336,1996s,001,"[90, 0]",3,
,,183,1996s,001,test_90,yellow,,,0.32818957714686336,-0.7163847713486207,,0,False,4.103566600009799,True,square,dot,,,,,,,90,90,,,5.110244011701747,1267.3405149020332,265.6385430413068,248,248,5.110244011701747,1267.3405149020332,265.6385430413068,1267.3405149020332,1285.5329508251282,-45.258135997041244,1285.5329508251282,0.5040322580645161,test_medium,8,individualized_calibration,0.2414297750189407,0.40766968306220214,high,medium,70pct,3,4,0.32818957714686336,1996s,001,"[90, 0]",3,
,,184,1996s,001,test_90,yellow,,,0.32818957714686336,-0.7163847713486207,,1,False,3.820954700000584,True,square,square,,,,,,,90,-90,,,3.4183071169596166,789.6289440176714,292.9378574566475,231,231,3.4183071169596166,789.6289440176714,292.9378574566475,789.6289440176714,839.3089389881095,-158.20065689112928,839.3089389881095,0.47186147186147187,test_medium,9,individualized_calibration,0.2414297750189407,0.40766968306220214,high,medium,70pct,4,4,0.32818957714686336,1996s,001,"[90, 0]",3,
,,185,1996s,001,test_90,yellow,,,0.6084420222564921,0.4407680323471903,,1,False,1.3899612999521196,True,square,square,,,,,,,90,90,,,12.326486487329266,1060.077837910317,141.81739088845225,86,86,12.326486487329266,1060.077837910317,141.81739088845225,1060.077837910317,1060.0778379103167,19.794502895073887,1060.0778379103167,0.8255813953488372,test_learning_easy,7,individualized_calibration,0.2414297750189407,0.40766968306220214,high,easy,80pct,4,7,0.32818957714686336,1996s,001,"[90, 0]",3,
,,186,1996s,001,test_90,red,,,0.32818957714686336,-0.7163847713486207,,1,False,3.7049740999937057,True,dot,dot,,,,,,,90,-90,,,3.8151931740036544,854.6032709768186,379.0043138647837,224,224,3.8151931740036544,854.6032709768186,379.0043138647837,854.6032709768186,854.6032709768181,-219.37085512882362,854.6032709768181,0.49107142857142855,test_medium,7,individualized_calibration,0.2414297750189407,0.40766968306220214,low,medium,70pct,3,5,0.32818957714686336,1996s,001,"[90, 0]",3,
,,187,1996s,001,test_90,red,,,0.12355019032049691,-1.9592319676528094,,1,False,3.7719482998363674,True,square,square,,,,,,,90,90,,,2.660143518323971,609.1728656961893,448.04590773551405,229,229,2.660143518323971,609.1728656961893,448.04590773551405,609.1728656961893,609.1728656961897,-223.02846526538906,609.1728656961897,0.5327510917030568,test_learning_hard,4,individualized_calibration,0.2414297750189407,0.40766968306220214,low,hard,60pct,1,1,0.32818957714686336,1996s,001,"[90, 0]",3,
,,188,1996s,001,test_90,red,,,0.32818957714686336,-0.7163847713486207,,1,False,3.621280899969861,True,square,square,,,,,,,90,90,,,2.421324257440411,530.27001237945,311.7636893094859,219,219,2.421324257440411,530.27001237945,311.7636893094859,530.27001237945,627.9800938287701,-12.557820600906725,627.9800938287701,0.5662100456621004,test_medium,8,individualized_calibration,0.2414297750189407,0.40766968306220214,low,medium,70pct,1,1,0.32818957714686336,1996s,001,"[90, 0]",3,
,,189,1996s,001,test_90,red,,,0.32818957714686336,-0.7163847713486207,,1,False,3.021154399961233,True,dot,dot,,,,,,,90,-90,,,4.25140471107498,778.0070621267214,407.07392146614166,183,183,4.25140471107498,778.0070621267214,407.07392146614166,778.0070621267214,779.3684110207859,-112.99334307103351,779.3684110207859,0.5245901639344263,test_medium,9,individualized_calibration,0.2414297750189407,0.40766968306220214,low,medium,70pct,1,1,0.32818957714686336,1996s,001,"[90, 0]",3,
,,190,1996s,001,test_90,yellow,,,0.32818957714686336,-0.7163847713486207,,1,False,3.5534911998547614,True,square,square,,,,,,,90,90,,,5.478162682277853,1177.8049766897384,393.72895076847834,215,215,5.478162682277853,1177.8049766897384,393.72895076847834,1177.8049766897384,1243.5350440808716,0.4740134279886399,1243.5350440808716,0.5581395348837209,test_medium,10,individualized_calibration,0.2414297750189407,0.40766968306220214,high,medium,70pct,3,3,0.32818957714686336,1996s,001,"[90, 0]",3,
,,191,1996s,001,test_90,red,,,0.32818957714686336,-0.7163847713486207,,1,False,3.387701400090009,True,square,square,,,,,,,90,90,,,3.862109238494164,791.7323938913037,418.3576992885069,205,205,3.862109238494164,791.7323938913037,418.3576992885069,791.7323938913037,791.7323938913039,-145.24558626846292,791.7323938913039,0.5365853658536586,test_medium,10,individualized_calibration,0.2414297750189407,0.40766968306220214,low,medium,70pct,2,2,0.32818957714686336,1996s,001,"[90, 0]",3,
,,192,1996s,001,test_90,yellow,,,0.6084420222564921,0.4407680323471903,,1,False,3.870642099995166,True,square,square,,,,,,,90,-90,,,11.655539661900407,2727.3962808846954,196.79517287801255,234,234,11.655539661900407,2727.3962808846954,196.79517287801255,2727.3962808846954,2727.3962808846945,21.447226451092323,2727.3962808846945,0.5683760683760684,test_learning_easy,8,individualized_calibration,0.2414297750189407,0.40766968306220214,high,easy,80pct,3,3,0.32818957714686336,1996s,001,"[90, 0]",3,
,,193,1996s,001,test_90,red,,,0.32818957714686336,-0.7163847713486207,,1,False,3.7540655001066625,True,dot,dot,,,,,,,90,90,,,4.970858199811766,1128.3848113572708,414.3911608387234,227,227,4.970858199811766,1128.3848113572708,414.3911608387234,1128.3848113572708,1135.3491574238665,-54.34550012030086,1135.3491574238665,0.5242290748898678,test_medium,11,individualized_calibration,0.2414297750189407,0.40766968306220214,low,medium,70pct,3,3,0.32818957714686336,1996s,001,"[90, 0]",3,
,,194,1996s,001,test_90,red,,,0.12355019032049691,-1.9592319676528094,,0,False,3.85330619988963,True,square,dot,,,,,,,90,90,,,0.680208071284286,158.48848060923862,325.79662320511443,233,233,0.680208071284286,158.48848060923862,325.79662320511443,158.48848060923862,397.0261708734129,-125.72089993889935,397.0261708734129,0.4334763948497854,test_learning_hard,5,individualized_calibration,0.2414297750189407,0.40766968306220214,low,hard,60pct,3,3,0.32818957714686336,1996s,001,"[90, 0]",3,
,,195,1996s,001,test_90,red,,,0.12355019032049691,-1.9592319676528094,,1,False,3.8710757000371814,True,square,square,,,,,,,90,90,,,2.972902365620444,695.6591535551839,488.8234188980397,234,234,2.972902365620444,695.6591535551839,488.8234188980397,695.6591535551839,695.6591535551836,-177.5504060876656,695.6591535551836,0.5555555555555556,test_learning_hard,6,individualized_calibration,0.2414297750189407,0.40766968306220214,low,hard,60pct,2,2,0.32818957714686336,1996s,001,"[90, 0]",3,
,,196,1996s,001,test_90,red,,,0.32818957714686336,-0.7163847713486207,,nan,True,nan,False,dot,timeout,,,,,,,90,90,,,2.4995131223567286,752.3534498293753,264.78762315844494,nan,nan,nan,nan,nan,nan,nan,nan,nan,nan,test_medium,12,individualized_calibration,0.2414297750189407,0.40766968306220214,low,medium,70pct,nan,nan,0.32818957714686336,1996s,001,"[90, 0]",3,
,,197,1996s,001,test_90,yellow,,,0.32818957714686336,-0.7163847713486207,,1,False,3.769755900138989,True,dot,dot,,,,,,,90,90,,,4.751326295329348,1083.3023953350914,224.26167131933983,228,228,4.751326295329348,1083.3023953350914,224.26167131933983,1083.3023953350914,1083.3023953350914,8.558702102154214,1083.3023953350914,0.5219298245614035,test_medium,11,individualized_calibration,0.2414297750189407,0.40766968306220214,high,medium,70pct,2,2,0.32818957714686336,1996s,001,"[90, 0]",3,
,,198,1996s,001,test_90,red,,,0.12355019032049691,-1.9592319676528094,,0,False,4.086469300091267,True,dot,square,,,,,,,90,90,,,2.3806440044531114,588.0190690999185,157.63544579057657,247,247,2.3806440044531114,588.0190690999185,157.63544579057657,588.0190690999185,772.8240272973678,-16.661538491948228,772.8240272973678,0.5465587044534413,test_learning_hard,7,individualized_calibration,0.2414297750189407,0.40766968306220214,low,hard,60pct,2,2,0.32818957714686336,1996s,001,"[90, 0]",3,
,,199,1996s,001,test_90,yellow,,,0.6084420222564921,0.4407680323471903,,1,False,3.638057400006801,True,square,square,,,,,,,90,90,,,10.81269664948598,2378.7932628869157,190.16178308943682,220,220,10.81269664948598,2378.7932628869157,190.16178308943682,2378.7932628869157,2378.793262886915,-1.5479078843940255,2378.793262886915,0.6318181818181818,test_learning_easy,9,individualized_calibration,0.2414297750189407,0.40766968306220214,high,easy,80pct,2,2,0.32818957714686336,1996s,001,"[90, 0]",3,
,,200,1996s,001,test_90,yellow,,,0.32818957714686336,-0.7163847713486207,,1,False,3.654924300033599,True,square,square,,,,,,,90,90,,,5.482640594235835,1211.6635713261194,354.2388302208898,221,221,5.482640594235835,1211.6635713261194,354.2388302208898,1211.6635713261194,1368.2685683597701,-81.68454029545106,1368.2685683597701,0.579185520361991,test_medium,12,individualized_calibration,0.2414297750189407,0.40766968306220214,high,medium,70pct,3,3,0.32818957714686336,1996s,001,"[90, 0]",3,
,,201,1996s,001,test_90,red,,,0.12355019032049691,-1.9592319676528094,,0,False,3.487736399983987,True,dot,square,,,,,,,90,90,,,3.159646541596706,666.685420276905,459.4520029982128,211,211,3.159646541596706,666.685420276905,459.4520029982128,666.685420276905,884.7749492436322,-10.552509569004071,884.7749492436322,0.5165876777251185,test_learning_hard,8,individualized_calibration,0.2414297750189407,0.40766968306220214,low,hard,60pct,2,2,0.32818957714686336,1996s,001,"[90, 0]",3,
,,202,1996s,001,test_90,red,,,0.12355019032049691,-1.9592319676528094,,1,False,3.3525783999357373,True,square,square,,,,,,,90,-90,,,0.6613718560238349,134.25848677283847,480.6360893878381,203,203,0.6613718560238349,134.25848677283847,480.6360893878381,134.25848677283847,268.67200729388117,-137.1823444817217,268.67200729388117,0.5024630541871922,test_learning_hard,9,individualized_calibration,0.2414297750189407,0.40766968306220214,low,hard,60pct,3,3,0.32818957714686336,1996s,001,"[90, 0]",3,
,,203,1996s,001,test_90,yellow,,,0.32818957714686336,-0.7163847713486207,,0,False,3.253703699912876,True,dot,square,,,,,,,90,-90,,,4.927888924364212,970.7941180997498,429.3262309741349,197,197,4.927888924364212,970.7941180997498,429.3262309741349,970.7941180997498,1009.4046884983028,-34.405520465702246,1009.4046884983028,0.5786802030456852,test_medium,13,individualized_calibration,0.2414297750189407,0.40766968306220214,high,medium,70pct,3,3,0.32818957714686336,1996s,001,"[90, 0]",3,
,,204,1996s,001,test_90,yellow,,,0.32818957714686336,-0.7163847713486207,,0,False,3.53656809986569,True,dot,square,,,,,,,90,-90,,,3.642588660534949,779.513973354479,250.7926219829309,214,214,3.642588660534949,779.513973354479,250.7926219829309,779.513973354479,788.3845061456628,-30.885599786882633,788.3845061456628,0.5233644859813084,test_medium,14,individualized_calibration,0.2414297750189407,0.40766968306220214,high,medium,70pct,3,3,0.32818957714686336,1996s,001,"[90, 0]",3,
