thisRow.t,notes,trial_num,participant,session,phase,n_shapes,block_num,staircase_trial,prop_used,accuracy,is_timeout,rt_choice,early_response,true_shape,resp_shape,angle_bias,applied_angle_bias,consecutive_correct,reversals,current_staircase_prop,mean_evidence,sum_evidence,var_evidence,difficulty_level,threshold_75,level_1_prop,level_2_prop,level_3_prop,level_4_prop,confidence_rating,agency_rating,participant,session,block_order,threshold_75_4shape,staircase_reversals_4shape,threshold_75_2shape,staircase_reversals_2shape,
,,1,AUTO_TEST,001,calibration,4,1,1,0.25,0,False,0.3,False,circle,square,0,0,0,0,0.3,-0.21624494193958935,-39.14033449106567,9.265490693018236,,,,,,,,,AUTO_TEST,001,"4-shape first, 2-shape second",,,,,
,,2,AUTO_TEST,001,calibration,4,1,2,0.3,1,False,0.3,False,circle,circle,0,0,1,0,0.3,0.16712483992135313,30.249596025764916,11.480080659393195,,,,,,,,,AUTO_TEST,001,"4-shape first, 2-shape second",,,,,
,,3,AUTO_TEST,001,calibration,4,1,3,0.3,0,False,0.3,False,circle,square,0,0,0,0,0.35,0.158095937608892,28.457268769600564,7.450310807072738,,,,,,,,,AUTO_TEST,001,"4-shape first, 2-shape second",,,,,
,,4,AUTO_TEST,001,calibration,4,1,4,0.35,0,False,0.3,False,circle,triangle,0,0,0,0,0.39999999999999997,0.28327566328073905,35.126182246811645,9.28799606185904,,,,,,,,,AUTO_TEST,001,"4-shape first, 2-shape second",,,,,
,,5,AUTO_TEST,001,calibration,4,1,5,0.39999999999999997,0,False,0.3,False,diamond,triangle,0,0,0,0,0.44999999999999996,0.4073994310642892,70.88750100518632,15.174145441297867,,,,,,,,,AUTO_TEST,001,"4-shape first, 2-shape second",,,,,
,,6,AUTO_TEST,001,calibration,4,1,6,0.44999999999999996,0,False,0.3,False,square,circle,0,0,0,0,0.49999999999999994,-0.01173703169807387,-1.9835583569744841,14.952454042150096,,,,,,,,,AUTO_TEST,001,"4-shape first, 2-shape second",,,,,
,,7,AUTO_TEST,001,calibration,4,1,7,0.49999999999999994,0,False,0.3,False,square,triangle,0,0,0,0,0.5499999999999999,-0.010666486697120477,-1.8879681453903245,12.47467542430219,,,,,,,,,AUTO_TEST,001,"4-shape first, 2-shape second",,,,,
,,8,AUTO_TEST,001,calibration,4,1,8,0.5499999999999999,0,False,0.3,False,square,triangle,0,0,0,0,0.6,0.09024660797649188,16.24438943576854,7.269835236575073,,,,,,,,,AUTO_TEST,001,"4-shape first, 2-shape second",,,,,
,,9,AUTO_TEST,001,calibration,4,1,9,0.6,1,False,0.3,False,square,square,0,0,1,0,0.6,0.2298723401929129,40.68740421414558,15.757785669032813,,,,,,,,,AUTO_TEST,001,"4-shape first, 2-shape second",,,,,
,,10,AUTO_TEST,001,calibration,4,1,10,0.6,0,False,0.3,False,square,diamond,0,0,0,0,0.65,-0.09250709792041435,-16.743784723595,10.717345159145113,,,,,,,,,AUTO_TEST,001,"4-shape first, 2-shape second",,,,,
,,11,AUTO_TEST,001,calibration,4,1,11,0.65,0,False,0.3,False,triangle,circle,0,0,0,0,0.7000000000000001,0.3293693873521341,54.01657952575,5.673082925335895,,,,,,,,,AUTO_TEST,001,"4-shape first, 2-shape second",,,,,
,,12,AUTO_TEST,001,calibration,4,1,12,0.7000000000000001,0,False,0.3,False,triangle,diamond,0,0,0,0,0.7500000000000001,0.5621182114881681,98.93280522191759,16.009016299823386,,,,,,,,,AUTO_TEST,001,"4-shape first, 2-shape second",,,,,
,,13,AUTO_TEST,001,calibration,4,1,13,0.7500000000000001,0,False,0.3,False,circle,square,0,0,0,0,0.8000000000000002,0.9720267297017483,175.93683807601644,4.042887797055154,,,,,,,,,AUTO_TEST,001,"4-shape first, 2-shape second",,,,,
,,14,AUTO_TEST,001,calibration,4,1,14,0.8000000000000002,1,False,0.3,False,square,square,0,0,1,0,0.8000000000000002,1.184071430235931,214.3169288727035,8.659362953293392,,,,,,,,,AUTO_TEST,001,"4-shape first, 2-shape second",,,,,
,,15,AUTO_TEST,001,calibration,4,1,15,0.8000000000000002,0,False,0.3,False,square,circle,0,0,0,0,0.8500000000000002,1.5210683478520701,272.27123426552055,11.17164291946559,,,,,,,,,AUTO_TEST,001,"4-shape first, 2-shape second",,,,,
,,16,AUTO_TEST,001,calibration,4,1,16,0.8500000000000002,0,False,0.3,False,diamond,square,0,0,0,0,0.9,2.247629243857161,404.57326389428897,9.220968944502422,,,,,,,,,AUTO_TEST,001,"4-shape first, 2-shape second",,,,,
,,17,AUTO_TEST,001,calibration,4,1,17,0.9,1,False,0.3,False,square,square,0,0,1,0,0.9,2.998986562151282,539.8175811872308,7.893249444697168,,,,,,,,,AUTO_TEST,001,"4-shape first, 2-shape second",,,,,
,,18,AUTO_TEST,001,calibration,4,1,18,0.9,0,False,0.3,False,square,diamond,0,0,0,0,0.9,2.7738478724001827,502.0664649044331,7.548669505684787,,,,,,,,,AUTO_TEST,001,"4-shape first, 2-shape second",,,,,
,,19,AUTO_TEST,001,calibration,4,1,19,0.9,0,False,0.3,False,diamond,circle,0,0,0,0,0.9,2.5913868704004828,469.0410235424874,8.896310783785557,,,,,,,,,AUTO_TEST,001,"4-shape first, 2-shape second",,,,,
,,20,AUTO_TEST,001,calibration,4,1,20,0.9,1,False,0.3,False,square,square,0,0,1,0,0.9,2.6580713981578055,481.1109230665628,8.906549155987411,,,,,,,,,AUTO_TEST,001,"4-shape first, 2-shape second",,,,,
,,21,AUTO_TEST,001,test,4,1,,0.9,0,False,0.3,False,circle,triangle,0,0,,,,3.0510856643365196,549.1954195805736,10.552146099726572,level_4,0.8500000000000001,0.6900000000000001,0.7700000000000001,0.9,0.9,2.0,1.0,AUTO_TEST,001,"4-shape first, 2-shape second",0.8500000000000001,0,,,
,,22,AUTO_TEST,001,test,4,1,,0.6900000000000001,0,False,0.3,False,circle,diamond,0,0,,,,0.6721032974985713,120.97859354974284,15.597207184938114,level_1,0.8500000000000001,0.6900000000000001,0.7700000000000001,0.9,0.9,2.0,3.0,AUTO_TEST,001,"4-shape first, 2-shape second",0.8500000000000001,0,,,
,,23,AUTO_TEST,001,test,4,1,,0.7700000000000001,0,False,0.3,False,diamond,triangle,0,0,,,,1.479082577569076,249.96495560917384,13.57787061493323,level_2,0.8500000000000001,0.6900000000000001,0.7700000000000001,0.9,0.9,4.0,2.0,AUTO_TEST,001,"4-shape first, 2-shape second",0.8500000000000001,0,,,
,,24,AUTO_TEST,001,test,4,1,,0.7700000000000001,0,False,0.3,False,diamond,circle,0,0,,,,1.4343828640616652,111.88186339680988,13.133557630891914,level_2,0.8500000000000001,0.6900000000000001,0.7700000000000001,0.9,0.9,4.0,5.0,AUTO_TEST,001,"4-shape first, 2-shape second",0.8500000000000001,0,,,
,,25,AUTO_TEST,001,test,4,1,,0.9,0,False,0.3,False,diamond,square,0,0,,,,2.6641270388066016,482.20699402399487,7.0797679054704625,level_4,0.8500000000000001,0.6900000000000001,0.7700000000000001,0.9,0.9,3.0,1.0,AUTO_TEST,001,"4-shape first, 2-shape second",0.8500000000000001,0,,,
,,26,AUTO_TEST,001,test,4,1,,0.9,0,False,0.3,False,diamond,square,0,0,,,,3.1886822597537035,561.2080777166518,10.697071671971942,level_3,0.8500000000000001,0.6900000000000001,0.7700000000000001,0.9,0.9,3.0,4.0,AUTO_TEST,001,"4-shape first, 2-shape second",0.8500000000000001,0,,,
,,27,AUTO_TEST,001,test,4,1,,0.6900000000000001,0,False,0.3,False,square,triangle,0,0,,,,0.6773427809199967,117.85764388007942,15.683314509050593,level_1,0.8500000000000001,0.6900000000000001,0.7700000000000001,0.9,0.9,4.0,3.0,AUTO_TEST,001,"4-shape first, 2-shape second",0.8500000000000001,0,,,
,,28,AUTO_TEST,001,test,4,1,,0.7700000000000001,0,False,0.3,False,triangle,diamond,0,0,,,,1.1241026664620937,203.46258262963897,9.17424417998335,level_2,0.8500000000000001,0.6900000000000001,0.7700000000000001,0.9,0.9,2.0,5.0,AUTO_TEST,001,"4-shape first, 2-shape second",0.8500000000000001,0,,,
,,29,AUTO_TEST,001,test,4,1,,0.6900000000000001,0,False,0.3,False,diamond,square,0,0,,,,0.8148934565954115,147.49571564376947,9.637421072899299,level_1,0.8500000000000001,0.6900000000000001,0.7700000000000001,0.9,0.9,4.0,4.0,AUTO_TEST,001,"4-shape first, 2-shape second",0.8500000000000001,0,,,
,,30,AUTO_TEST,001,test,4,1,,0.9,0,False,0.3,False,triangle,diamond,0,0,,,,2.6054122513365043,471.5796174919073,7.680553585917886,level_3,0.8500000000000001,0.6900000000000001,0.7700000000000001,0.9,0.9,1.0,3.0,AUTO_TEST,001,"4-shape first, 2-shape second",0.8500000000000001,0,,,
,,31,AUTO_TEST,001,test,4,1,,0.6900000000000001,0,False,0.3,False,triangle,diamond,0,0,,,,0.5742879044974919,103.94611071404603,14.675187014775851,level_1,0.8500000000000001,0.6900000000000001,0.7700000000000001,0.9,0.9,3.0,6.0,AUTO_TEST,001,"4-shape first, 2-shape second",0.8500000000000001,0,,,
,,32,AUTO_TEST,001,test,4,1,,0.7700000000000001,1,False,0.3,False,triangle,triangle,0,0,,,,1.7500869839484046,316.7657440946612,13.756859777024252,level_2,0.8500000000000001,0.6900000000000001,0.7700000000000001,0.9,0.9,2.0,1.0,AUTO_TEST,001,"4-shape first, 2-shape second",0.8500000000000001,0,,,
,,33,AUTO_TEST,001,test,4,1,,0.9,0,False,0.3,False,diamond,circle,0,0,,,,2.940270578829091,532.1889747680655,8.256079895042479,level_4,0.8500000000000001,0.6900000000000001,0.7700000000000001,0.9,0.9,2.0,1.0,AUTO_TEST,001,"4-shape first, 2-shape second",0.8500000000000001,0,,,
,,34,AUTO_TEST,001,test,4,1,,0.9,1,False,0.3,False,triangle,triangle,0,0,,,,2.8131516266481795,509.1804444233205,12.22290820182095,level_3,0.8500000000000001,0.6900000000000001,0.7700000000000001,0.9,0.9,2.0,7.0,AUTO_TEST,001,"4-shape first, 2-shape second",0.8500000000000001,0,,,
,,35,AUTO_TEST,001,test,4,1,,0.9,0,False,0.3,False,triangle,diamond,0,0,,,,2.5405815611058773,459.8452625601638,9.460574961649314,level_4,0.8500000000000001,0.6900000000000001,0.7700000000000001,0.9,0.9,4.0,2.0,AUTO_TEST,001,"4-shape first, 2-shape second",0.8500000000000001,0,,,
,,36,AUTO_TEST,001,test,4,1,,0.9,1,False,0.3,False,circle,circle,0,0,,,,2.4100269024648284,436.2148693461339,8.178279940605293,level_3,0.8500000000000001,0.6900000000000001,0.7700000000000001,0.9,0.9,4.0,7.0,AUTO_TEST,001,"4-shape first, 2-shape second",0.8500000000000001,0,,,
,,37,AUTO_TEST,001,test,4,1,,0.9,0,False,0.3,False,diamond,square,0,0,,,,2.674564556740511,484.0961847700325,11.433241301501917,level_4,0.8500000000000001,0.6900000000000001,0.7700000000000001,0.9,0.9,2.0,2.0,AUTO_TEST,001,"4-shape first, 2-shape second",0.8500000000000001,0,,,
,,38,AUTO_TEST,001,test,4,1,,0.7700000000000001,0,False,0.3,False,square,triangle,0,0,,,,1.0238481624713998,185.31651740732335,10.523536192479252,level_2,0.8500000000000001,0.6900000000000001,0.7700000000000001,0.9,0.9,1.0,3.0,AUTO_TEST,001,"4-shape first, 2-shape second",0.8500000000000001,0,,,
,,39,AUTO_TEST,001,test,4,1,,0.9,0,False,0.3,False,square,triangle,0,0,,,,2.540412910194828,459.8147367452639,9.25217328694173,level_3,0.8500000000000001,0.6900000000000001,0.7700000000000001,0.9,0.9,3.0,4.0,AUTO_TEST,001,"4-shape first, 2-shape second",0.8500000000000001,0,,,
,,40,AUTO_TEST,001,test,4,1,,0.6900000000000001,0,False,0.3,False,circle,square,0,0,,,,0.5915394190511357,107.06863484825557,10.936834569445262,level_1,0.8500000000000001,0.6900000000000001,0.7700000000000001,0.9,0.9,3.0,6.0,AUTO_TEST,001,"4-shape first, 2-shape second",0.8500000000000001,0,,,
,,41,AUTO_TEST,001,calibration,2,2,1,0.25,1,False,0.3,False,square,square,0,0,1,0,0.25,-0.31888729829728774,-57.71860099180908,25.19918737902506,,,,,,,,,AUTO_TEST,001,"4-shape first, 2-shape second",0.8500000000000001,0,,,
,,42,AUTO_TEST,001,calibration,2,2,2,0.25,1,False,0.3,False,dot,dot,0,0,2,0,0.25,-0.03538983300592829,-6.370169941067092,15.53469132442686,,,,,,,,,AUTO_TEST,001,"4-shape first, 2-shape second",0.8500000000000001,0,,,
,,43,AUTO_TEST,001,calibration,2,2,3,0.25,1,False,0.3,False,dot,dot,0,0,0,0,0.2,0.031907818490211404,5.775315146728264,13.065877723176893,,,,,,,,,AUTO_TEST,001,"4-shape first, 2-shape second",0.8500000000000001,0,,,
,,44,AUTO_TEST,001,calibration,2,2,4,0.2,0,False,0.3,False,dot,square,0,0,0,1,0.25,0.0770067903261477,13.784215468380438,20.50749381777573,,,,,,,,,AUTO_TEST,001,"4-shape first, 2-shape second",0.8500000000000001,0,,,
,,45,AUTO_TEST,001,calibration,2,2,5,0.25,0,False,0.3,False,square,dot,0,0,0,1,0.3,0.16026349204519336,27.24479364768287,21.337090023427873,,,,,,,,,AUTO_TEST,001,"4-shape first, 2-shape second",0.8500000000000001,0,,,
,,46,AUTO_TEST,001,calibration,2,2,6,0.3,1,False,0.3,False,square,square,0,0,1,1,0.3,0.19502803253631984,35.30007388907389,25.810674560232545,,,,,,,,,AUTO_TEST,001,"4-shape first, 2-shape second",0.8500000000000001,0,,,
,,47,AUTO_TEST,001,calibration,2,2,7,0.3,0,False,0.3,False,dot,square,0,0,0,1,0.35,0.3668707056223858,66.40359771765182,20.98145523079042,,,,,,,,,AUTO_TEST,001,"4-shape first, 2-shape second",0.8500000000000001,0,,,
,,48,AUTO_TEST,001,calibration,2,2,8,0.35,1,False,0.3,False,dot,dot,0,0,1,1,0.35,-0.11803456469743415,-21.36425621023558,26.816516269390466,,,,,,,,,AUTO_TEST,001,"4-shape first, 2-shape second",0.8500000000000001,0,,,
,,49,AUTO_TEST,001,calibration,2,2,9,0.35,1,False,0.3,False,square,square,0,0,2,1,0.35,0.32920942806036907,59.5869064789268,9.831382981573832,,,,,,,,,AUTO_TEST,001,"4-shape first, 2-shape second",0.8500000000000001,0,,,
,,50,AUTO_TEST,001,calibration,2,2,10,0.35,0,False,0.3,False,dot,square,0,0,0,1,0.39999999999999997,0.422842562204303,76.53450375897884,16.07975227399064,,,,,,,,,AUTO_TEST,001,"4-shape first, 2-shape second",0.8500000000000001,0,,,
,,51,AUTO_TEST,001,calibration,2,2,11,0.39999999999999997,0,False,0.3,False,dot,square,0,0,0,1,0.44999999999999996,0.4234128558748351,76.63772691334516,24.391995003865897,,,,,,,,,AUTO_TEST,001,"4-shape first, 2-shape second",0.8500000000000001,0,,,
,,52,AUTO_TEST,001,calibration,2,2,12,0.44999999999999996,0,False,0.3,False,dot,square,0,0,0,1,0.49999999999999994,0.6348796519281464,114.9132169989945,26.61149802401999,,,,,,,,,AUTO_TEST,001,"4-shape first, 2-shape second",0.8500000000000001,0,,,
,,53,AUTO_TEST,001,calibration,2,2,13,0.49999999999999994,0,False,0.3,False,square,dot,0,0,0,1,0.5499999999999999,0.7002902153905246,126.75252898568496,16.964185200281843,,,,,,,,,AUTO_TEST,001,"4-shape first, 2-shape second",0.8500000000000001,0,,,
,,54,AUTO_TEST,001,calibration,2,2,14,0.5499999999999999,0,False,0.3,False,square,dot,0,0,0,1,0.6,0.3777635368017636,68.37520016111921,12.30970843459095,,,,,,,,,AUTO_TEST,001,"4-shape first, 2-shape second",0.8500000000000001,0,,,
,,55,AUTO_TEST,001,calibration,2,2,15,0.6,0,False,0.3,False,square,dot,0,0,0,1,0.65,0.4631277525801375,83.82612321700489,6.078280330089076,,,,,,,,,AUTO_TEST,001,"4-shape first, 2-shape second",0.8500000000000001,0,,,
,,56,AUTO_TEST,001,calibration,2,2,16,0.65,1,False,0.3,False,dot,dot,0,0,1,1,0.65,1.1180171831456711,201.2430929662208,24.945041292562564,,,,,,,,,AUTO_TEST,001,"4-shape first, 2-shape second",0.8500000000000001,0,,,
,,57,AUTO_TEST,001,calibration,2,2,17,0.65,1,False,0.3,False,square,square,0,0,2,1,0.65,0.9544598501021032,172.75723286848068,17.379711106503475,,,,,,,,,AUTO_TEST,001,"4-shape first, 2-shape second",0.8500000000000001,0,,,
,,58,AUTO_TEST,001,calibration,2,2,18,0.65,1,False,0.3,False,dot,dot,0,0,0,2,0.6,-0.03231420489914219,-5.848871086744737,22.52886147856389,,,,,,,,,AUTO_TEST,001,"4-shape first, 2-shape second",0.8500000000000001,0,,,
,,59,AUTO_TEST,001,calibration,2,2,19,0.6,1,False,0.3,False,square,square,0,0,1,2,0.6,0.23543760139678283,42.61420585281769,24.603740445111256,,,,,,,,,AUTO_TEST,001,"4-shape first, 2-shape second",0.8500000000000001,0,,,
,,60,AUTO_TEST,001,calibration,2,2,20,0.6,0,False,0.3,False,dot,square,0,0,0,3,0.65,0.987475285891876,178.73302674642957,19.719011621818463,,,,,,,,,AUTO_TEST,001,"4-shape first, 2-shape second",0.8500000000000001,0,,,
,,61,AUTO_TEST,001,test,2,2,,0.76,1,False,0.3,False,square,square,0,0,,,,1.9121672548245914,346.10227312325105,26.087651158775742,level_4,0.6,0.43999999999999995,0.52,0.6799999999999999,0.76,4.0,2.0,AUTO_TEST,001,"4-shape first, 2-shape second",0.8500000000000001,0,0.6,3,
,,62,AUTO_TEST,001,test,2,2,,0.76,0,False,0.3,False,dot,square,0,0,,,,1.187137607836146,214.87190701834243,26.03335101816723,level_4,0.6,0.43999999999999995,0.52,0.6799999999999999,0.76,2.0,6.0,AUTO_TEST,001,"4-shape first, 2-shape second",0.8500000000000001,0,0.6,3,
,,63,AUTO_TEST,001,test,2,2,,0.43999999999999995,0,False,0.3,False,dot,square,0,0,,,,0.520243619515262,94.16409513226242,21.89789342722747,level_1,0.6,0.43999999999999995,0.52,0.6799999999999999,0.76,3.0,7.0,AUTO_TEST,001,"4-shape first, 2-shape second",0.8500000000000001,0,0.6,3,
,,64,AUTO_TEST,001,test,2,2,,0.76,1,False,0.3,False,dot,dot,0,0,,,,1.1810395024092168,213.76814993606826,22.56046686634726,level_4,0.6,0.43999999999999995,0.52,0.6799999999999999,0.76,4.0,4.0,AUTO_TEST,001,"4-shape first, 2-shape second",0.8500000000000001,0,0.6,3,
,,65,AUTO_TEST,001,test,2,2,,0.52,0,False,0.3,False,square,dot,0,0,,,,-0.15164964921058746,-27.44858650711633,18.95333326814401,level_2,0.6,0.43999999999999995,0.52,0.6799999999999999,0.76,3.0,6.0,AUTO_TEST,001,"4-shape first, 2-shape second",0.8500000000000001,0,0.6,3,
,,66,AUTO_TEST,001,test,2,2,,0.43999999999999995,1,False,0.3,False,dot,dot,0,0,,,,0.2531769224707825,45.06549219979928,12.642718033499857,level_1,0.6,0.43999999999999995,0.52,0.6799999999999999,0.76,2.0,1.0,AUTO_TEST,001,"4-shape first, 2-shape second",0.8500000000000001,0,0.6,3,
,,67,AUTO_TEST,001,test,2,2,,0.52,0,False,0.3,False,dot,square,0,0,,,,0.11556102899767724,20.800985219581904,18.274696403431008,level_2,0.6,0.43999999999999995,0.52,0.6799999999999999,0.76,1.0,1.0,AUTO_TEST,001,"4-shape first, 2-shape second",0.8500000000000001,0,0.6,3,
,,68,AUTO_TEST,001,test,2,2,,0.6799999999999999,1,False,0.3,False,dot,dot,0,0,,,,1.3111205502094145,234.6905784874852,20.55188528597112,level_3,0.6,0.43999999999999995,0.52,0.6799999999999999,0.76,3.0,4.0,AUTO_TEST,001,"4-shape first, 2-shape second",0.8500000000000001,0,0.6,3,
,,69,AUTO_TEST,001,test,2,2,,0.6799999999999999,1,False,0.3,False,dot,dot,0,0,,,,0.452667528381455,81.93282263704336,16.556576311513282,level_3,0.6,0.43999999999999995,0.52,0.6799999999999999,0.76,4.0,7.0,AUTO_TEST,001,"4-shape first, 2-shape second",0.8500000000000001,0,0.6,3,
,,70,AUTO_TEST,001,test,2,2,,0.52,0,False,0.3,False,square,dot,0,0,,,,0.8185712533306283,148.16139685284372,13.979577338702239,level_2,0.6,0.43999999999999995,0.52,0.6799999999999999,0.76,3.0,2.0,AUTO_TEST,001,"4-shape first, 2-shape second",0.8500000000000001,0,0.6,3,
,,71,AUTO_TEST,001,test,2,2,,0.43999999999999995,0,False,0.3,False,square,dot,0,0,,,,0.6934235959399689,125.50967086513438,27.22588657819702,level_1,0.6,0.43999999999999995,0.52,0.6799999999999999,0.76,1.0,2.0,AUTO_TEST,001,"4-shape first, 2-shape second",0.8500000000000001,0,0.6,3,
,,72,AUTO_TEST,001,test,2,2,,0.52,0,False,0.3,False,square,dot,0,0,,,,-0.18436835919035874,-33.37067301345493,19.703091363204404,level_2,0.6,0.43999999999999995,0.52,0.6799999999999999,0.76,4.0,1.0,AUTO_TEST,001,"4-shape first, 2-shape second",0.8500000000000001,0,0.6,3,
,,73,AUTO_TEST,001,test,2,2,,0.43999999999999995,1,False,0.3,False,dot,dot,0,0,,,,-0.05573535668435046,-10.032364203183082,12.871696835156401,level_1,0.6,0.43999999999999995,0.52,0.6799999999999999,0.76,2.0,4.0,AUTO_TEST,001,"4-shape first, 2-shape second",0.8500000000000001,0,0.6,3,
,,74,AUTO_TEST,001,test,2,2,,0.76,0,False,0.3,False,dot,square,0,0,,,,1.4080899710782013,254.86428476515442,15.389635506415113,level_4,0.6,0.43999999999999995,0.52,0.6799999999999999,0.76,2.0,1.0,AUTO_TEST,001,"4-shape first, 2-shape second",0.8500000000000001,0,0.6,3,
,,75,AUTO_TEST,001,test,2,2,,0.76,1,False,0.3,False,square,square,0,0,,,,1.178804758122976,213.36366122025862,17.56485846980903,level_4,0.6,0.43999999999999995,0.52,0.6799999999999999,0.76,4.0,6.0,AUTO_TEST,001,"4-shape first, 2-shape second",0.8500000000000001,0,0.6,3,
,,76,AUTO_TEST,001,test,2,2,,0.6799999999999999,0,False,0.3,False,dot,square,0,0,,,,0.4990810983815479,90.33367880706017,21.636028586753714,level_3,0.6,0.43999999999999995,0.52,0.6799999999999999,0.76,4.0,6.0,AUTO_TEST,001,"4-shape first, 2-shape second",0.8500000000000001,0,0.6,3,
,,77,AUTO_TEST,001,test,2,2,,0.6799999999999999,0,False,0.3,False,square,dot,0,0,,,,0.8363940131320902,147.20534631124787,18.489204970411738,level_3,0.6,0.43999999999999995,0.52,0.6799999999999999,0.76,4.0,5.0,AUTO_TEST,001,"4-shape first, 2-shape second",0.8500000000000001,0,0.6,3,
,,78,AUTO_TEST,001,test,2,2,,0.43999999999999995,1,False,0.3,False,dot,dot,0,0,,,,0.3683865751169873,66.6779700961747,16.243569781228743,level_1,0.6,0.43999999999999995,0.52,0.6799999999999999,0.76,3.0,3.0,AUTO_TEST,001,"4-shape first, 2-shape second",0.8500000000000001,0,0.6,3,
,,79,AUTO_TEST,001,test,2,2,,0.52,0,False,0.3,False,dot,square,0,0,,,,0.5446708171582111,93.68338055121231,20.354312400821588,level_2,0.6,0.43999999999999995,0.52,0.6799999999999999,0.76,4.0,4.0,AUTO_TEST,001,"4-shape first, 2-shape second",0.8500000000000001,0,0.6,3,
,,80,AUTO_TEST,001,test,2,2,,0.6799999999999999,0,False,0.3,False,dot,square,0,0,,,,0.7150864032624437,129.4306389905023,18.77272681266917,level_3,0.6,0.43999999999999995,0.52,0.6799999999999999,0.76,4.0,7.0,AUTO_TEST,001,"4-shape first, 2-shape second",0.8500000000000001,0,0.6,3,
